onset	duration	onsetsample	eventnumber	stimnumber	stimname	blocknumber	trialnumber	istarget	time_stimon	time_stimoff	stimdur	stimfilename	spatial_freq	pattern	contrast	shape	is_fast_stream	category	ppt_1_response	ppt_1_keypressed	ppt_1_rt	ppt_1_correct	ppt_2_response	ppt_2_keypressed	ppt_2_rt	ppt_2_correct	button1	button2	button3	button4	task_part_number	subjectnr
208.59033203125	0.0999898537702393	427193	0	1	stim01_sf1_pattern1_cont1_shape2.png	0	0	0	219.123415381124	219.223405234894	0.0999898537702393	stim01_sf1_pattern1_cont1_shape2.png	1	1	1	2	1	1	0	0	0	0	0	0	0	0	0	0	0	0	1	22
209.0986328125	0.0999916132132057	428234	1	12	stim12_sf2_pattern2_cont1_shape1.png	0	1	0	219.631729736662	219.731721349875	0.0999916132132057	stim12_sf2_pattern2_cont1_shape1.png	2	2	1	1	1	2	0	0	0	0	0	0	0	0	0	0	0	0	1	22
209.5986328125	0.105558269686298	429258	2	7	stim07_sf1_pattern2_cont2_shape2.png	0	2	0	220.151155998348	220.256714268035	0.105558269686298	stim07_sf1_pattern2_cont2_shape2.png	1	2	2	2	1	3	0	0	0	0	0	0	0	0	0	0	0	0	1	22
210.12353515625	0.100003049738007	430333	3	0	stim00_sf1_pattern1_cont1_shape1.png	0	3	0	220.656695089856	220.756698139594	0.100003049738007	stim00_sf1_pattern1_cont1_shape1.png	1	1	1	1	1	1	0	0	0	0	0	0	0	0	0	0	0	0	1	22
210.62353515625	0.0999919064634014	431357	4	3	stim03_sf1_pattern1_cont2_shape2.png	0	4	0	221.156694796606	221.256686703069	0.0999919064634014	stim03_sf1_pattern1_cont2_shape2.png	1	1	2	2	1	3	0	0	0	0	0	0	0	0	0	0	0	0	1	22
211.12353515625	0.0999948388780467	432381	5	15	stim15_sf2_pattern2_cont2_shape2.png	0	5	0	221.656680134416	221.756674973294	0.0999948388780467	stim15_sf2_pattern2_cont2_shape2.png	2	2	2	2	1	4	0	0	0	0	0	0	0	0	0	0	0	0	1	22
211.62353515625	0.0999954254075419	433405	6	14	stim14_sf2_pattern2_cont2_shape1.png	0	6	0	222.156668697862	222.25666412327	0.0999954254075419	stim14_sf2_pattern2_cont2_shape1.png	2	2	2	1	1	4	0	0	0	0	0	0	0	0	0	0	0	0	1	22
212.12353515625	0.0999338440597057	434429	7	6	stim06_sf1_pattern2_cont2_shape1.png	0	7	0	222.656719135906	222.756652979966	0.0999338440597057	stim06_sf1_pattern2_cont2_shape1.png	1	2	2	1	1	3	0	0	0	0	0	0	0	0	0	0	0	0	1	22
212.62353515625	0.0999957186286338	435453	8	11	stim11_sf2_pattern1_cont2_shape2.png	0	8	0	223.156644945091	223.25664066372	0.0999957186286338	stim11_sf2_pattern1_cont2_shape2.png	2	1	2	2	1	4	0	0	0	0	0	0	0	0	0	0	0	0	1	22
213.12353515625	0.100000410544453	436477	9	13	stim13_sf2_pattern2_cont1_shape2.png	0	9	0	223.656629109901	223.756629520445	0.100000410544453	stim13_sf2_pattern2_cont1_shape2.png	2	2	1	2	1	2	0	0	0	0	0	0	0	0	0	0	0	0	1	22
213.62353515625	0.0999936659063678	437501	10	8	stim08_sf2_pattern1_cont1_shape1.png	0	10	0	224.156621778791	224.256615444698	0.0999936659063678	stim08_sf2_pattern1_cont1_shape1.png	2	1	1	1	1	2	0	0	0	0	0	0	0	0	0	0	0	0	1	22
214.123046875	0.0999839888536371	438524	11	2	stim02_sf1_pattern1_cont2_shape1.png	0	11	0	224.656614154432	224.756598143285	0.0999839888536371	stim02_sf1_pattern1_cont2_shape1.png	1	1	2	1	1	3	0	0	0	0	0	0	0	0	0	0	0	0	1	22
214.623046875	0.0999983578221872	439548	12	5	stim05_sf1_pattern2_cont1_shape2.png	0	12	0	225.156571634026	225.256569991849	0.0999983578221872	stim05_sf1_pattern2_cont1_shape2.png	1	2	1	2	1	1	0	0	0	0	0	0	0	0	0	0	0	0	1	22
215.123046875	0.099988094298169	440572	13	9	stim09_sf2_pattern1_cont1_shape2.png	0	13	0	225.656587762438	225.756575856736	0.099988094298169	stim09_sf2_pattern1_cont1_shape2.png	2	1	1	2	1	2	0	0	0	0	0	0	0	0	0	0	0	0	1	22
215.623046875	0.0999992375727743	441596	14	10	stim10_sf2_pattern1_cont2_shape1.png	0	14	0	226.156572513748	226.256571751321	0.0999992375727743	stim10_sf2_pattern1_cont2_shape1.png	2	1	2	1	1	4	0	0	0	0	0	0	0	0	0	0	0	0	1	22
216.123046875	0.0999854550755117	442620	15	4	stim04_sf1_pattern2_cont1_shape1.png	0	15	0	226.656565769139	226.756551224214	0.0999854550755117	stim04_sf1_pattern2_cont1_shape1.png	1	2	1	1	1	1	0	0	0	0	0	0	0	0	0	0	0	0	1	22
216.623046875	0.0999801766884048	443644	16	9	stim09_sf2_pattern1_cont1_shape2.png	0	16	0	227.156548760948	227.256528937636	0.0999801766884048	stim09_sf2_pattern1_cont1_shape2.png	2	1	1	2	1	2	0	0	0	0	0	0	0	0	0	0	0	0	1	22
217.123046875	0.0999458671140019	444668	17	15	stim15_sf2_pattern2_cont2_shape2.png	0	17	0	227.656532632507	227.756478499621	0.0999458671140019	stim15_sf2_pattern2_cont2_shape2.png	2	2	2	2	1	4	0	0	0	0	0	0	0	0	0	0	0	0	1	22
217.623046875	0.0999957186577376	445692	18	13	stim13_sf2_pattern2_cont1_shape2.png	0	18	0	228.156499495904	228.256495214562	0.0999957186577376	stim13_sf2_pattern2_cont1_shape2.png	2	2	1	2	1	2	0	0	0	0	0	0	0	0	0	0	0	0	1	22
218.123046875	0.0999951321282424	446716	19	5	stim05_sf1_pattern2_cont1_shape2.png	0	19	0	228.656506533793	228.756501665921	0.0999951321282424	stim05_sf1_pattern2_cont1_shape2.png	1	2	1	2	1	1	0	0	0	0	0	0	0	0	0	0	0	0	1	22
218.623046875	0.0999968916003127	447740	20	6	stim06_sf1_pattern2_cont2_shape1.png	0	20	0	229.156505654042	229.256502545642	0.0999968916003127	stim06_sf1_pattern2_cont2_shape1.png	1	2	2	1	1	3	0	0	0	0	0	0	0	0	0	0	0	0	1	22
219.123046875	0.099993372685276	448764	21	10	stim10_sf2_pattern1_cont2_shape1.png	0	21	0	229.656493631017	229.756487003702	0.099993372685276	stim10_sf2_pattern1_cont2_shape1.png	2	1	2	1	1	4	0	0	0	0	0	0	0	0	0	0	0	0	1	22
219.623046875	0.0999983578221872	449788	22	4	stim04_sf1_pattern2_cont1_shape1.png	0	22	0	230.156478968827	230.256477326649	0.0999983578221872	stim04_sf1_pattern2_cont1_shape1.png	1	2	1	1	1	1	0	0	0	0	0	0	0	0	0	0	0	0	1	22
220.123046875	0.0999998240731657	450812	23	14	stim14_sf2_pattern2_cont2_shape1.png	0	23	0	230.656470464717	230.75647028879	0.0999998240731657	stim14_sf2_pattern2_cont2_shape1.png	2	2	2	1	1	4	0	0	0	0	0	0	0	0	0	0	0	0	1	22
220.623046875	0.0999883875192609	451836	24	11	stim11_sf2_pattern1_cont2_shape2.png	0	24	0	231.156459907943	231.256448295462	0.0999883875192609	stim11_sf2_pattern1_cont2_shape2.png	2	1	2	2	1	4	0	0	0	0	0	0	0	0	0	0	0	0	1	22
221.123046875	0.0999980645719916	452860	25	0	stim00_sf1_pattern1_cont1_shape1.png	0	25	0	231.656439674087	231.756437738659	0.0999980645719916	stim00_sf1_pattern1_cont1_shape1.png	1	1	1	1	1	1	0	0	0	0	0	0	0	0	0	0	0	0	1	22
221.623046875	0.100006861932343	453884	26	1	stim01_sf1_pattern1_cont1_shape2.png	0	26	0	232.156427651062	232.256434512994	0.100006861932343	stim01_sf1_pattern1_cont1_shape2.png	1	1	1	2	1	1	0	0	0	0	0	0	0	0	0	0	0	0	1	22
222.123046875	0.0999951321573462	454908	27	2	stim02_sf1_pattern1_cont2_shape1.png	0	27	0	232.656415921287	232.756411053444	0.0999951321573462	stim02_sf1_pattern1_cont2_shape1.png	1	1	2	1	1	3	0	0	0	0	0	0	0	0	0	0	0	0	1	22
222.623046875	0.0999992375727743	455932	28	8	stim08_sf2_pattern1_cont1_shape1.png	0	28	1	233.15640331179	233.256402549363	0.0999992375727743	stim08_sf2_pattern1_cont1_shape1.png	2	1	1	1	1	2	0	0	0	0	0	0	0	0	0	0	0	0	1	22
223.123046875	0.0999945456569549	456956	29	8	stim08_sf2_pattern1_cont1_shape1.png	0	29	1	233.656393048237	233.756387593894	0.0999945456569549	stim08_sf2_pattern1_cont1_shape1.png	2	1	1	1	1	2	0	0	0	0	0	0	0	0	0	0	0	0	1	22
223.623046875	0.099997478100704	457980	30	11	stim11_sf2_pattern1_cont2_shape2.png	0	30	2	234.15638014549	234.256377623591	0.099997478100704	stim11_sf2_pattern1_cont2_shape2.png	2	1	2	2	1	4	0	0	0	0	0	0	0	0	0	0	0	0	1	22
224.123046875	0.100004809210077	459004	31	9	stim09_sf2_pattern1_cont1_shape2.png	0	31	2	234.656366362993	234.756371172203	0.100004809210077	stim09_sf2_pattern1_cont1_shape2.png	2	1	1	2	1	2	0	0	0	0	0	0	0	0	0	0	0	0	1	22
224.623046875	0.0999986510723829	460028	32	8	stim08_sf2_pattern1_cont1_shape1.png	0	32	0	235.156356979191	235.256355630263	0.0999986510723829	stim08_sf2_pattern1_cont1_shape1.png	2	1	1	1	1	2	0	0	0	0	0	0	0	0	0	0	0	0	1	22
225.123046875	0.100031201203819	461052	33	3	stim03_sf1_pattern1_cont2_shape2.png	0	33	0	235.656310353341	235.756341554545	0.100031201203819	stim03_sf1_pattern1_cont2_shape2.png	1	1	2	2	1	3	0	0	0	0	0	0	0	0	0	0	0	0	1	22
225.623046875	0.10004087825655	462076	34	7	stim07_sf1_pattern2_cont2_shape2.png	0	34	0	236.156290705985	236.256331584242	0.10004087825655	stim07_sf1_pattern2_cont2_shape2.png	1	2	2	2	1	3	0	0	0	0	0	0	0	0	0	0	0	0	1	22
226.123046875	0.100018884928431	463100	35	12	stim12_sf2_pattern2_cont1_shape1.png	0	35	0	236.656294811401	236.756313696329	0.100018884928431	stim12_sf2_pattern2_cont1_shape1.png	2	2	1	1	1	2	0	0	0	0	0	0	0	0	0	0	0	0	1	22
226.623046875	0.0999954253784381	464124	36	2	stim02_sf1_pattern1_cont2_shape1.png	0	36	0	237.156309180369	237.256304605748	0.0999954253784381	stim02_sf1_pattern1_cont2_shape1.png	1	1	2	1	1	3	0	0	0	0	0	0	0	0	0	0	0	0	1	22
227.123046875	0.0999924929637928	465148	37	0	stim00_sf1_pattern1_cont1_shape1.png	0	37	0	237.656298623566	237.75629111653	0.0999924929637928	stim00_sf1_pattern1_cont1_shape1.png	1	1	1	1	1	1	0	0	0	0	0	0	0	0	0	0	0	0	1	22
227.623046875	0.0999977713508997	466172	38	14	stim14_sf2_pattern2_cont2_shape1.png	0	38	0	238.156285427569	238.25628319892	0.0999977713508997	stim14_sf2_pattern2_cont2_shape1.png	2	2	2	1	1	4	0	0	0	0	0	0	0	0	0	0	0	0	1	22
228.123046875	0.0999945456569549	467196	39	11	stim11_sf2_pattern1_cont2_shape2.png	0	39	0	238.656275164016	238.756269709673	0.0999945456569549	stim11_sf2_pattern1_cont2_shape2.png	2	1	2	2	1	4	0	0	0	0	0	0	0	0	0	0	0	0	1	22
228.623046875	0.099996598350117	468220	40	8	stim08_sf2_pattern1_cont1_shape1.png	0	40	0	239.156261968048	239.256258566398	0.099996598350117	stim08_sf2_pattern1_cont1_shape1.png	2	1	1	1	1	2	0	0	0	0	0	0	0	0	0	0	0	0	1	22
229.123046875	0.0999921997135971	469244	41	7	stim07_sf1_pattern2_cont2_shape2.png	0	41	0	239.656254050438	239.756246250152	0.0999921997135971	stim07_sf1_pattern2_cont2_shape2.png	1	2	2	2	1	3	0	0	0	0	0	0	0	0	0	0	0	0	1	22
229.623046875	0.10000744840363	470268	42	4	stim04_sf1_pattern2_cont1_shape1.png	0	42	0	240.156233816582	240.256241264986	0.10000744840363	stim04_sf1_pattern2_cont1_shape1.png	1	2	1	1	1	1	0	0	0	0	0	0	0	0	0	0	0	0	1	22
230.123046875	0.100002170016523	471292	43	12	stim12_sf2_pattern2_cont1_shape1.png	0	43	0	240.656227951695	240.756230121711	0.100002170016523	stim12_sf2_pattern2_cont1_shape1.png	2	2	1	1	1	2	0	0	0	0	0	0	0	0	0	0	0	0	1	22
230.623046875	0.0999924929637928	472316	44	6	stim06_sf1_pattern2_cont2_shape1.png	0	44	0	241.156218861113	241.256211354077	0.0999924929637928	stim06_sf1_pattern2_cont2_shape1.png	1	2	2	1	1	3	0	0	0	0	0	0	0	0	0	0	0	0	1	22
231.12255859375	0.0999687401345	473339	45	5	stim05_sf1_pattern2_cont1_shape2.png	0	45	0	241.656202732702	241.756171472836	0.0999687401345	stim05_sf1_pattern2_cont1_shape2.png	1	2	1	2	1	1	0	0	0	0	0	0	0	0	0	0	0	0	1	22
231.62255859375	0.0999989443225786	474363	46	13	stim13_sf2_pattern2_cont1_shape2.png	0	46	0	242.156164317683	242.256163262005	0.0999989443225786	stim13_sf2_pattern2_cont1_shape2.png	2	2	1	2	1	2	0	0	0	0	0	0	0	0	0	0	0	0	1	22
232.12255859375	0.0999963050999213	475387	47	9	stim09_sf2_pattern1_cont1_shape2.png	0	47	0	242.656176633958	242.756172939058	0.0999963050999213	stim09_sf2_pattern1_cont1_shape2.png	2	1	1	2	1	2	0	0	0	0	0	0	0	0	0	0	0	0	1	22
232.62255859375	0.0999992375436705	476411	48	3	stim03_sf1_pattern1_cont2_shape2.png	0	48	0	243.156141737883	243.256140975427	0.0999992375436705	stim03_sf1_pattern1_cont2_shape2.png	1	1	2	2	1	3	0	0	0	0	0	0	0	0	0	0	0	0	1	22
233.12255859375	0.0999746050511021	477435	49	1	stim01_sf1_pattern1_cont1_shape2.png	0	49	0	243.656151708186	243.756126313237	0.0999746050511021	stim01_sf1_pattern1_cont1_shape2.png	1	1	1	2	1	1	0	0	0	0	0	0	0	0	0	0	0	0	1	22
233.62255859375	0.100001876766328	478459	50	3	stim03_sf1_pattern1_cont2_shape2.png	0	50	1	244.156140271662	244.256142148428	0.100001876766328	stim03_sf1_pattern1_cont2_shape2.png	1	1	2	2	1	3	0	0	0	0	0	0	0	0	0	0	0	0	1	22
234.12255859375	0.0999886807694566	479483	51	3	stim03_sf1_pattern1_cont2_shape2.png	0	51	1	244.656142031105	244.756130711874	0.0999886807694566	stim03_sf1_pattern1_cont2_shape2.png	1	1	2	2	1	3	0	0	0	0	0	0	0	0	0	0	0	0	1	22
234.62255859375	0.09999953082297	480507	52	9	stim09_sf2_pattern1_cont1_shape2.png	0	52	2	245.156121797248	245.256121328071	0.09999953082297	stim09_sf2_pattern1_cont1_shape2.png	2	1	1	2	1	2	0	0	0	0	0	0	0	0	0	0	0	0	1	22
235.12255859375	0.0999842821038328	481531	53	4	stim04_sf1_pattern2_cont1_shape1.png	0	53	2	245.656109774252	245.756094056356	0.0999842821038328	stim04_sf1_pattern2_cont1_shape1.png	1	2	1	1	1	1	0	0	0	0	0	0	0	0	0	0	0	0	1	22
235.62255859375	0.0999907334917225	482555	54	10	stim10_sf2_pattern1_cont2_shape1.png	0	54	0	246.156106255308	246.2560969888	0.0999907334917225	stim10_sf2_pattern1_cont2_shape1.png	2	1	2	1	1	4	0	0	0	0	0	0	0	0	0	0	0	0	1	22
236.12255859375	0.0999575968598947	483579	55	15	stim15_sf2_pattern2_cont2_shape2.png	0	55	0	246.656083968759	246.756041565619	0.0999575968598947	stim15_sf2_pattern2_cont2_shape2.png	2	2	2	2	1	4	0	0	0	0	0	0	0	0	0	0	0	0	1	22
236.62255859375	0.0999963050999213	484603	56	0	stim00_sf1_pattern1_cont1_shape1.png	0	56	0	247.156071066012	247.256067371112	0.0999963050999213	stim00_sf1_pattern1_cont1_shape1.png	1	1	1	1	1	1	0	0	0	0	0	0	0	0	0	0	0	0	1	22
237.12255859375	0.0999795901880134	485627	57	14	stim14_sf2_pattern2_cont2_shape1.png	0	57	0	247.656073705206	247.756053295394	0.0999795901880134	stim14_sf2_pattern2_cont2_shape1.png	2	2	2	1	1	4	0	0	0	0	0	0	0	0	0	0	0	0	1	22
237.62255859375	0.0999980646010954	486651	58	12	stim12_sf2_pattern2_cont1_shape1.png	0	58	0	248.156047019962	248.256045084563	0.0999980646010954	stim12_sf2_pattern2_cont1_shape1.png	2	2	1	1	1	2	0	0	0	0	0	0	0	0	0	0	0	0	1	22
238.12255859375	0.0999951321573462	487675	59	7	stim07_sf1_pattern2_cont2_shape2.png	0	59	0	248.656035583437	248.756030715595	0.0999951321573462	stim07_sf1_pattern2_cont2_shape2.png	1	2	2	2	1	3	0	0	0	0	0	0	0	0	0	0	0	0	1	22
238.62255859375	0.100000117294258	488699	60	10	stim10_sf2_pattern1_cont2_shape1.png	0	60	0	249.15602209419	249.256022211484	0.100000117294258	stim10_sf2_pattern1_cont2_shape1.png	2	1	2	1	1	4	0	0	0	0	0	0	0	0	0	0	0	0	1	22
239.12255859375	0.100000703794649	489723	61	8	stim08_sf2_pattern1_cont1_shape1.png	0	61	0	249.656010657665	249.75601136146	0.100000703794649	stim08_sf2_pattern1_cont1_shape1.png	2	1	1	1	1	2	0	0	0	0	0	0	0	0	0	0	0	0	1	22
239.62255859375	0.0999980645719916	490747	62	11	stim11_sf2_pattern1_cont2_shape2.png	0	62	0	250.155998634669	250.255996699241	0.0999980645719916	stim11_sf2_pattern1_cont2_shape2.png	2	1	2	2	1	4	0	0	0	0	0	0	0	0	0	0	0	0	1	22
240.12255859375	0.0999960118788294	491771	63	2	stim02_sf1_pattern1_cont2_shape1.png	0	63	0	250.655988664337	250.755984676216	0.0999960118788294	stim02_sf1_pattern1_cont2_shape1.png	1	1	2	1	1	3	0	0	0	0	0	0	0	0	0	0	0	0	1	22
240.62255859375	0.0999963051290251	492795	64	6	stim06_sf1_pattern2_cont2_shape1.png	0	64	0	251.155977227812	251.255973532941	0.0999963051290251	stim06_sf1_pattern2_cont2_shape1.png	1	2	2	1	1	3	0	0	0	0	0	0	0	0	0	0	0	0	1	22
241.12255859375	0.0999980646010954	493819	65	4	stim04_sf1_pattern2_cont1_shape1.png	0	65	0	251.655964618316	251.755962682917	0.0999980646010954	stim04_sf1_pattern2_cont1_shape1.png	1	2	1	1	1	1	0	0	0	0	0	0	0	0	0	0	0	0	1	22
241.62255859375	0.0999927861848846	494843	66	13	stim13_sf2_pattern2_cont1_shape2.png	0	66	0	252.155958166957	252.255950953142	0.0999927861848846	stim13_sf2_pattern2_cont1_shape2.png	2	2	1	2	1	2	0	0	0	0	0	0	0	0	0	0	0	0	1	22
242.12255859375	0.100015366013395	495867	67	9	stim09_sf2_pattern1_cont1_shape2.png	0	67	0	252.655922391132	252.755937757145	0.100015366013395	stim09_sf2_pattern1_cont1_shape2.png	2	1	1	2	1	2	0	0	0	0	0	0	0	0	0	0	0	0	1	22
242.62255859375	0.0999977713508997	496891	68	1	stim01_sf1_pattern1_cont1_shape2.png	0	68	0	253.155930895213	253.255928666564	0.0999977713508997	stim01_sf1_pattern1_cont1_shape2.png	1	1	1	2	1	1	0	0	0	0	0	0	0	0	0	0	0	0	1	22
243.12255859375	0.0999989443225786	497915	69	3	stim03_sf1_pattern1_cont2_shape2.png	0	69	0	253.655918578967	253.755917523289	0.0999989443225786	stim03_sf1_pattern1_cont2_shape2.png	1	1	2	2	1	3	0	0	0	0	0	0	0	0	0	0	0	0	1	22
243.62255859375	0.0999942524067592	498939	70	10	stim10_sf2_pattern1_cont2_shape1.png	0	70	1	254.155907142442	254.255901394848	0.0999942524067592	stim10_sf2_pattern1_cont2_shape1.png	2	1	2	1	1	4	0	0	0	0	0	0	0	0	0	0	0	0	1	22
244.12255859375	0.0999901469913311	499963	71	10	stim10_sf2_pattern1_cont2_shape1.png	0	71	1	254.655900397804	254.755890544795	0.0999901469913311	stim10_sf2_pattern1_cont2_shape1.png	2	1	2	1	1	4	0	0	0	0	0	0	0	0	0	0	0	0	1	22
244.62255859375	0.0999957186286338	500987	72	6	stim06_sf1_pattern2_cont2_shape1.png	0	72	2	255.15588250992	255.255878228549	0.0999957186286338	stim06_sf1_pattern2_cont2_shape1.png	1	2	2	1	1	3	0	0	0	0	0	0	0	0	0	0	0	0	1	22
245.12255859375	0.0999898537411354	502011	73	5	stim05_sf1_pattern2_cont1_shape2.png	0	73	2	255.655874299089	255.75586415283	0.0999898537411354	stim05_sf1_pattern2_cont1_shape2.png	1	2	1	2	1	1	0	0	0	0	0	0	0	0	0	0	0	0	1	22
245.62255859375	0.099969619885087	503035	74	15	stim15_sf2_pattern2_cont2_shape2.png	0	74	0	256.155860516592	256.255830136477	0.099969619885087	stim15_sf2_pattern2_cont2_shape2.png	2	2	2	2	1	4	0	0	0	0	0	0	0	0	0	0	0	0	1	22
246.12255859375	0.0999555441667326	504059	75	5	stim05_sf1_pattern2_cont1_shape2.png	0	75	0	256.655852012511	256.755807556678	0.0999555441667326	stim05_sf1_pattern2_cont1_shape2.png	1	2	1	2	1	1	0	0	0	0	0	0	0	0	0	0	0	0	1	22
246.62255859375	0.0999936659354717	505083	76	0	stim00_sf1_pattern1_cont1_shape1.png	0	76	0	257.155842921929	257.255836587865	0.0999936659354717	stim00_sf1_pattern1_cont1_shape1.png	1	1	1	1	1	1	0	0	0	0	0	0	0	0	0	0	0	0	1	22
247.12255859375	0.0999895604909398	506107	77	7	stim07_sf1_pattern2_cont2_shape2.png	0	77	0	257.655807732634	257.755797293124	0.0999895604909398	stim07_sf1_pattern2_cont2_shape2.png	1	2	2	2	1	3	0	0	0	0	0	0	0	0	0	0	0	0	1	22
247.62255859375	0.0991511750617065	507131	78	2	stim02_sf1_pattern1_cont2_shape1.png	0	78	0	258.156632922066	258.255784097128	0.0991511750617065	stim02_sf1_pattern1_cont2_shape1.png	1	1	2	1	1	3	0	0	0	0	0	0	0	0	0	0	0	0	1	22
248.1220703125	0.0999476265569683	508154	79	1	stim01_sf1_pattern1_cont1_shape2.png	0	79	0	258.655798642052	258.755746268609	0.0999476265569683	stim01_sf1_pattern1_cont1_shape2.png	1	1	1	2	1	1	0	0	0	0	0	0	0	0	0	0	0	0	1	22
248.6220703125	0.100016245734878	509178	80	5	stim05_sf1_pattern2_cont1_shape2.png	0	80	0	259.155765212199	259.255781457934	0.100016245734878	stim05_sf1_pattern2_cont1_shape2.png	1	2	1	2	1	1	0	0	0	0	0	0	0	0	0	0	0	0	1	22
249.1220703125	0.0999954254075419	510202	81	9	stim09_sf2_pattern1_cont1_shape2.png	0	81	0	259.655781927111	259.755777352519	0.0999954254075419	stim09_sf2_pattern1_cont1_shape2.png	2	1	1	2	1	2	0	0	0	0	0	0	0	0	0	0	0	0	1	22
249.6220703125	0.0999960118788294	511226	82	4	stim04_sf1_pattern2_cont1_shape1.png	0	82	0	260.155768437893	260.255764449772	0.0999960118788294	stim04_sf1_pattern2_cont1_shape1.png	1	2	1	1	1	1	0	0	0	0	0	0	0	0	0	0	0	0	1	22
250.1220703125	0.0999968916003127	512250	83	12	stim12_sf2_pattern2_cont1_shape1.png	0	83	0	260.655761106784	260.755757998384	0.0999968916003127	stim12_sf2_pattern2_cont1_shape1.png	2	2	1	1	1	2	0	0	0	0	0	0	0	0	0	0	0	0	1	22
250.6220703125	0.100001290265936	513274	84	11	stim11_sf2_pattern1_cont2_shape2.png	0	84	0	261.155746444565	261.255747734831	0.100001290265936	stim11_sf2_pattern1_cont2_shape2.png	2	1	2	2	1	4	0	0	0	0	0	0	0	0	0	0	0	0	1	22
251.1220703125	0.0999490928079467	514298	85	6	stim06_sf1_pattern2_cont2_shape1.png	0	85	0	261.655741459399	261.755690552207	0.0999490928079467	stim06_sf1_pattern2_cont2_shape1.png	1	2	2	1	1	3	0	0	0	0	0	0	0	0	0	0	0	0	1	22
251.6220703125	0.100012726790737	515322	86	3	stim03_sf1_pattern1_cont2_shape2.png	0	86	0	262.155720639072	262.255733365862	0.100012726790737	stim03_sf1_pattern1_cont2_shape2.png	1	1	2	2	1	3	0	0	0	0	0	0	0	0	0	0	0	0	1	22
252.1220703125	0.0999954254075419	516346	87	15	stim15_sf2_pattern2_cont2_shape2.png	0	87	0	262.655708029546	262.755703454954	0.0999954254075419	stim15_sf2_pattern2_cont2_shape2.png	2	2	2	2	1	4	0	0	0	0	0	0	0	0	0	0	0	0	1	22
252.6220703125	0.0999831091321539	517370	88	8	stim08_sf2_pattern1_cont1_shape1.png	0	88	0	263.155710082268	263.2556931914	0.0999831091321539	stim08_sf2_pattern1_cont1_shape1.png	2	1	1	1	1	2	0	0	0	0	0	0	0	0	0	0	0	0	1	22
253.1220703125	0.0999901469913311	518394	89	10	stim10_sf2_pattern1_cont2_shape1.png	0	89	0	263.655685742997	263.755675889988	0.0999901469913311	stim10_sf2_pattern1_cont2_shape1.png	2	1	2	1	1	4	0	0	0	0	0	0	0	0	0	0	0	0	1	22
253.6220703125	0.099997478100704	519418	90	13	stim13_sf2_pattern2_cont1_shape2.png	0	90	0	264.155672547	264.255670025101	0.099997478100704	stim13_sf2_pattern2_cont1_shape2.png	2	2	1	2	1	2	0	0	0	0	0	0	0	0	0	0	0	0	1	22
254.1220703125	0.0999907334626187	520442	91	14	stim14_sf2_pattern2_cont2_shape1.png	0	91	0	264.655662576697	264.75565331016	0.0999907334626187	stim14_sf2_pattern2_cont2_shape1.png	2	2	2	1	1	4	0	0	0	0	0	0	0	0	0	0	0	0	1	22
254.6220703125	0.0999895605200436	521466	92	12	stim12_sf2_pattern2_cont1_shape1.png	0	92	0	265.155656125309	265.255645685829	0.0999895605200436	stim12_sf2_pattern2_cont1_shape1.png	2	2	1	1	1	2	0	0	0	0	0	0	0	0	0	0	0	0	1	22
255.1220703125	0.0999989443225786	522490	93	10	stim10_sf2_pattern1_cont2_shape1.png	0	93	0	265.655636771204	265.755635715526	0.0999989443225786	stim10_sf2_pattern1_cont2_shape1.png	2	1	2	1	1	4	0	0	0	0	0	0	0	0	0	0	0	0	1	22
255.6220703125	0.0999936659354717	523514	94	0	stim00_sf1_pattern1_cont1_shape1.png	0	94	0	266.155627094122	266.255620760057	0.0999936659354717	stim00_sf1_pattern1_cont1_shape1.png	1	1	1	1	1	1	0	0	0	0	0	0	0	0	0	0	0	0	1	22
256.1220703125	0.0999927861848846	524538	95	9	stim09_sf2_pattern1_cont1_shape2.png	0	95	0	266.655614777876	266.75560756406	0.0999927861848846	stim09_sf2_pattern1_cont1_shape2.png	2	1	1	2	1	2	0	0	0	0	0	0	0	0	0	0	0	0	1	22
256.6220703125	0.0995523332676385	525562	96	3	stim03_sf1_pattern1_cont2_shape2.png	0	96	0	267.156048779434	267.255601112702	0.0995523332676385	stim03_sf1_pattern1_cont2_shape2.png	1	1	2	2	1	3	0	0	0	0	0	0	0	0	0	0	0	0	1	22
257.1220703125	0.0999986510723829	526586	97	11	stim11_sf2_pattern1_cont2_shape2.png	0	97	0	267.655592784547	267.75559143562	0.0999986510723829	stim11_sf2_pattern1_cont2_shape2.png	2	1	2	2	1	4	0	0	0	0	0	0	0	0	0	0	0	0	1	22
257.6220703125	0.100002463266719	527610	98	5	stim05_sf1_pattern2_cont1_shape2.png	0	98	0	268.1555792953	268.255581758567	0.100002463266719	stim05_sf1_pattern2_cont1_shape2.png	1	2	1	2	1	1	0	0	0	0	0	0	0	0	0	0	0	0	1	22
258.1220703125	0.100029734981945	528634	99	14	stim14_sf2_pattern2_cont2_shape1.png	0	99	0	268.655540880311	268.755570615293	0.100029734981945	stim14_sf2_pattern2_cont2_shape1.png	2	2	2	1	1	4	0	0	0	0	0	0	0	0	0	0	0	0	1	22
258.6220703125	0.0999954254075419	529658	100	8	stim08_sf2_pattern1_cont1_shape1.png	0	100	0	269.155556129001	269.255551554408	0.0999954254075419	stim08_sf2_pattern1_cont1_shape1.png	2	1	1	1	1	2	0	0	0	0	0	0	0	0	0	0	0	0	1	22
259.1220703125	0.100003636238398	530682	101	13	stim13_sf2_pattern2_cont1_shape2.png	0	101	0	269.655545278976	269.755548915215	0.100003636238398	stim13_sf2_pattern2_cont1_shape2.png	2	2	1	2	1	2	0	0	0	0	0	0	0	0	0	0	0	0	1	22
259.6220703125	0.0999971848505083	531706	102	4	stim04_sf1_pattern2_cont1_shape1.png	0	102	0	270.155533255951	270.255530440802	0.0999971848505083	stim04_sf1_pattern2_cont1_shape1.png	1	2	1	1	1	1	0	0	0	0	0	0	0	0	0	0	0	0	1	22
260.1220703125	0.0999924929637928	532730	103	2	stim02_sf1_pattern1_cont2_shape1.png	0	103	0	270.65552475187	270.755517244834	0.0999924929637928	stim02_sf1_pattern1_cont2_shape1.png	1	1	2	1	1	3	0	0	0	0	0	0	0	0	0	0	0	0	1	22
260.6220703125	0.0999954253784381	533754	104	7	stim07_sf1_pattern2_cont2_shape2.png	0	104	0	271.155513608595	271.255509033974	0.0999954253784381	stim07_sf1_pattern2_cont2_shape2.png	1	2	2	2	1	3	0	0	0	0	0	0	0	0	0	0	0	0	1	22
261.1220703125	0.100002170016523	534778	105	15	stim15_sf2_pattern2_cont2_shape2.png	0	105	0	271.655498653126	271.755500823143	0.100002170016523	stim15_sf2_pattern2_cont2_shape2.png	2	2	2	2	1	4	0	0	0	0	0	0	0	0	0	0	0	0	1	22
261.6220703125	0.0999930794350803	535802	106	6	stim06_sf1_pattern2_cont2_shape1.png	0	106	0	272.155488976074	272.255482055509	0.0999930794350803	stim06_sf1_pattern2_cont2_shape1.png	1	2	2	1	1	3	0	0	0	0	0	0	0	0	0	0	0	0	1	22
262.1220703125	0.0999649279692676	536826	107	1	stim01_sf1_pattern1_cont1_shape2.png	0	107	0	272.655481644964	272.755446572934	0.0999649279692676	stim01_sf1_pattern1_cont1_shape2.png	1	1	1	2	1	1	0	0	0	0	0	0	0	0	0	0	0	0	1	22
262.6220703125	0.0999957186286338	537850	108	5	stim05_sf1_pattern2_cont1_shape2.png	0	108	0	273.155438831309	273.255434549937	0.0999957186286338	stim05_sf1_pattern2_cont1_shape2.png	1	2	1	2	1	1	0	0	0	0	0	0	0	0	0	0	0	0	1	22
263.1220703125	0.0999766577733681	538874	109	7	stim07_sf1_pattern2_cont2_shape2.png	0	109	0	273.655446162389	273.755422820162	0.0999766577733681	stim07_sf1_pattern2_cont2_shape2.png	1	2	2	2	1	3	0	0	0	0	0	0	0	0	0	0	0	0	1	22
263.6220703125	0.0999801766884048	539898	110	0	stim00_sf1_pattern1_cont1_shape1.png	0	110	0	274.155451147555	274.255431324244	0.0999801766884048	stim00_sf1_pattern1_cont1_shape1.png	1	1	1	1	1	1	0	0	0	0	0	0	0	0	0	0	0	0	1	22
264.1220703125	0.099997478100704	540922	111	1	stim01_sf1_pattern1_cont1_shape2.png	0	111	0	274.655424462311	274.755421940412	0.099997478100704	stim01_sf1_pattern1_cont1_shape2.png	1	1	1	2	1	1	0	0	0	0	0	0	0	0	0	0	0	0	1	22
264.6220703125	0.100000410544453	541946	112	9	stim09_sf2_pattern1_cont1_shape2.png	0	112	0	275.155417717702	275.255418128247	0.100000410544453	stim09_sf2_pattern1_cont1_shape2.png	2	1	1	2	1	2	0	0	0	0	0	0	0	0	0	0	0	0	1	22
265.1220703125	0.100010967347771	542970	113	11	stim11_sf2_pattern1_cont2_shape2.png	0	113	0	275.655404814956	275.755415782303	0.100010967347771	stim11_sf2_pattern1_cont2_shape2.png	2	1	2	2	1	4	0	0	0	0	0	0	0	0	0	0	0	0	1	22
265.62158203125	0.0999989443225786	543993	114	4	stim04_sf1_pattern2_cont1_shape1.png	0	114	0	276.155398950068	276.255397894391	0.0999989443225786	stim04_sf1_pattern2_cont1_shape1.png	1	2	1	1	1	1	0	0	0	0	0	0	0	0	0	0	0	0	1	22
266.12158203125	0.0999986510723829	545017	115	13	stim13_sf2_pattern2_cont1_shape2.png	0	115	0	276.655388686515	276.755387337587	0.0999986510723829	stim13_sf2_pattern2_cont1_shape2.png	2	2	1	2	1	2	0	0	0	0	0	0	0	0	0	0	0	0	1	22
266.62158203125	0.0999954253784381	546041	116	12	stim12_sf2_pattern2_cont1_shape1.png	0	116	0	277.15537754324	277.255372968619	0.0999954253784381	stim12_sf2_pattern2_cont1_shape1.png	2	2	1	1	1	2	0	0	0	0	0	0	0	0	0	0	0	0	1	22
267.12158203125	0.0999951321282424	547065	117	6	stim06_sf1_pattern2_cont2_shape1.png	0	117	0	277.655357309384	277.755352441513	0.0999951321282424	stim06_sf1_pattern2_cont2_shape1.png	1	2	2	1	1	3	0	0	0	0	0	0	0	0	0	0	0	0	1	22
267.62158203125	0.099985161825316	548089	118	8	stim08_sf2_pattern1_cont1_shape1.png	0	118	0	278.155345872859	278.255331034685	0.099985161825316	stim08_sf2_pattern1_cont1_shape1.png	2	1	1	1	1	2	0	0	0	0	0	0	0	0	0	0	0	0	1	22
268.12158203125	0.0999957186577376	549113	119	15	stim15_sf2_pattern2_cont2_shape2.png	0	119	0	278.655334729556	278.755330448213	0.0999957186577376	stim15_sf2_pattern2_cont2_shape2.png	2	2	2	2	1	4	0	0	0	0	0	0	0	0	0	0	0	0	1	22
268.62158203125	0.0999965983792208	550137	120	2	stim02_sf1_pattern1_cont2_shape1.png	0	120	0	279.155321826809	279.255318425188	0.0999965983792208	stim02_sf1_pattern1_cont2_shape1.png	1	1	2	1	1	3	0	0	0	0	0	0	0	0	0	0	0	0	1	22
269.12158203125	0.099997478100704	551161	121	10	stim10_sf2_pattern1_cont2_shape1.png	0	121	0	279.655310976785	279.755308454885	0.099997478100704	stim10_sf2_pattern1_cont2_shape1.png	2	1	2	1	1	4	0	0	0	0	0	0	0	0	0	0	0	0	1	22
269.62158203125	0.0999910267419182	552185	122	3	stim03_sf1_pattern1_cont2_shape2.png	0	122	0	280.155303059175	280.255294085917	0.0999910267419182	stim03_sf1_pattern1_cont2_shape2.png	1	1	2	2	1	3	0	0	0	0	0	0	0	0	0	0	0	0	1	22
270.12158203125	0.0999939591565635	553209	123	14	stim14_sf2_pattern2_cont2_shape1.png	0	123	0	280.655290449678	280.755284408835	0.0999939591565635	stim14_sf2_pattern2_cont2_shape1.png	2	2	2	1	1	4	0	0	0	0	0	0	0	0	0	0	0	0	1	22
270.62158203125	0.099996598350117	554233	124	13	stim13_sf2_pattern2_cont1_shape2.png	0	124	0	281.155278133432	281.255274731782	0.099996598350117	stim13_sf2_pattern2_cont1_shape2.png	2	2	1	2	1	2	0	0	0	0	0	0	0	0	0	0	0	0	1	22
271.12158203125	0.0999458670848981	555257	125	8	stim08_sf2_pattern1_cont1_shape1.png	0	125	0	281.655265230685	281.75521109777	0.0999458670848981	stim08_sf2_pattern1_cont1_shape1.png	2	1	1	1	1	2	0	0	0	0	0	0	0	0	0	0	0	0	1	22
271.62158203125	0.0999986510723829	556281	126	10	stim10_sf2_pattern1_cont2_shape1.png	0	126	0	282.155251741438	282.255250392511	0.0999986510723829	stim10_sf2_pattern1_cont2_shape1.png	2	1	2	1	1	4	0	0	0	0	0	0	0	0	0	0	0	0	1	22
272.12158203125	0.0999880942690652	557305	127	3	stim03_sf1_pattern1_cont2_shape2.png	0	127	0	282.655247342773	282.755235437042	0.0999880942690652	stim03_sf1_pattern1_cont2_shape2.png	1	1	2	2	1	3	0	0	0	0	0	0	0	0	0	0	0	0	1	22
272.62158203125	0.0999963051290251	558329	128	5	stim05_sf1_pattern2_cont1_shape2.png	0	128	0	283.15522945486	283.255225759989	0.0999963051290251	stim05_sf1_pattern2_cont1_shape2.png	1	2	1	2	1	1	0	0	0	0	0	0	0	0	0	0	0	0	1	22
273.12158203125	0.0999963051290251	559353	129	15	stim15_sf2_pattern2_cont2_shape2.png	0	129	0	283.655218311585	283.755214616715	0.0999963051290251	stim15_sf2_pattern2_cont2_shape2.png	2	2	2	2	1	4	0	0	0	0	0	0	0	0	0	0	0	0	1	22
273.62158203125	0.0999954254075419	560377	130	9	stim09_sf2_pattern1_cont1_shape2.png	0	130	0	284.155207461532	284.25520288694	0.0999954254075419	stim09_sf2_pattern1_cont1_shape2.png	2	1	1	2	1	2	0	0	0	0	0	0	0	0	0	0	0	0	1	22
274.12158203125	0.100024456565734	561401	131	14	stim14_sf2_pattern2_cont2_shape1.png	0	131	0	284.655168166821	284.755192623386	0.100024456565734	stim14_sf2_pattern2_cont2_shape1.png	2	2	2	1	1	4	0	0	0	0	0	0	0	0	0	0	0	0	1	22
274.62158203125	0.0999951321282424	562425	132	0	stim00_sf1_pattern1_cont1_shape1.png	0	132	0	285.155185468233	285.255180600361	0.0999951321282424	stim00_sf1_pattern1_cont1_shape1.png	1	1	1	1	1	1	0	0	0	0	0	0	0	0	0	0	0	0	1	22
275.12158203125	0.0999942524067592	563449	133	12	stim12_sf2_pattern2_cont1_shape1.png	0	133	0	285.655158782989	285.755153035396	0.0999942524067592	stim12_sf2_pattern2_cont1_shape1.png	2	2	1	1	1	2	0	0	0	0	0	0	0	0	0	0	0	0	1	22
275.62158203125	0.0999980646010954	564473	134	11	stim11_sf2_pattern1_cont2_shape2.png	0	134	0	286.155162888404	286.255160953006	0.0999980646010954	stim11_sf2_pattern1_cont2_shape2.png	2	1	2	2	1	4	0	0	0	0	0	0	0	0	0	0	0	0	1	22
276.12158203125	0.100000117294258	565497	135	1	stim01_sf1_pattern1_cont1_shape2.png	0	135	0	286.655149105936	286.755149223231	0.100000117294258	stim01_sf1_pattern1_cont1_shape2.png	1	1	1	2	1	1	0	0	0	0	0	0	0	0	0	0	0	0	1	22
276.62158203125	0.100015952484682	566521	136	2	stim02_sf1_pattern1_cont2_shape1.png	0	136	0	287.15511303689	287.255128989374	0.100015952484682	stim02_sf1_pattern1_cont2_shape1.png	1	1	2	1	1	3	0	0	0	0	0	0	0	0	0	0	0	0	1	22
277.12158203125	0.0999963051290251	567545	137	4	stim04_sf1_pattern2_cont1_shape1.png	0	137	0	287.655108638224	287.755104943353	0.0999963051290251	stim04_sf1_pattern2_cont1_shape1.png	1	2	1	1	1	1	0	0	0	0	0	0	0	0	0	0	0	0	1	22
277.62158203125	0.0999954253784381	568569	138	6	stim06_sf1_pattern2_cont2_shape1.png	0	138	0	288.15508957734	288.255085002718	0.0999954253784381	stim06_sf1_pattern2_cont2_shape1.png	1	2	2	1	1	3	0	0	0	0	0	0	0	0	0	0	0	0	1	22
278.12158203125	0.0999889740196522	569593	139	7	stim07_sf1_pattern2_cont2_shape2.png	0	139	0	288.655077847565	288.755066821584	0.0999889740196522	stim07_sf1_pattern2_cont2_shape2.png	1	2	2	2	1	3	0	0	0	0	0	0	0	0	0	0	0	0	1	22
278.62158203125	0.0999836956034414	570617	140	5	stim05_sf1_pattern2_cont1_shape2.png	0	140	0	289.155076967843	289.255060663447	0.0999836956034414	stim05_sf1_pattern2_cont1_shape2.png	1	2	1	2	1	1	0	0	0	0	0	0	0	0	0	0	0	0	1	22
279.12158203125	0.0999740185507108	571641	141	8	stim08_sf2_pattern1_cont1_shape1.png	0	141	0	289.655076674593	289.755050693144	0.0999740185507108	stim08_sf2_pattern1_cont1_shape1.png	2	1	1	1	1	2	0	0	0	0	0	0	0	0	0	0	0	0	1	22
279.62158203125	0.09999953082297	572665	142	2	stim02_sf1_pattern1_cont2_shape1.png	0	142	0	290.155064651568	290.255064182391	0.09999953082297	stim02_sf1_pattern1_cont2_shape1.png	1	1	2	1	1	3	0	0	0	0	0	0	0	0	0	0	0	0	1	22
280.12158203125	0.099997478100704	573689	143	6	stim06_sf1_pattern2_cont2_shape1.png	0	143	0	290.655057027208	290.755054505309	0.099997478100704	stim06_sf1_pattern2_cont2_shape1.png	1	2	2	1	1	3	0	0	0	0	0	0	0	0	0	0	0	0	1	22
280.62158203125	0.100000703794649	574713	144	12	stim12_sf2_pattern2_cont1_shape1.png	0	144	0	291.155048816378	291.255049520172	0.100000703794649	stim12_sf2_pattern2_cont1_shape1.png	2	2	1	1	1	2	0	0	0	0	0	0	0	0	0	0	0	0	1	22
281.12158203125	0.0999889740196522	575737	145	9	stim09_sf2_pattern1_cont1_shape2.png	0	145	0	291.655041778518	291.755030752538	0.0999889740196522	stim09_sf2_pattern1_cont1_shape2.png	2	1	1	2	1	2	0	0	0	0	0	0	0	0	0	0	0	0	1	22
281.62158203125	0.0999822293815669	576761	146	1	stim01_sf1_pattern1_cont1_shape2.png	0	146	0	292.155036500131	292.255018729513	0.0999822293815669	stim01_sf1_pattern1_cont1_shape2.png	1	1	1	2	1	1	0	0	0	0	0	0	0	0	0	0	0	0	1	22
282.12158203125	0.0999628752761055	577785	147	7	stim07_sf1_pattern2_cont2_shape2.png	0	147	0	292.655018025718	292.754980900994	0.0999628752761055	stim07_sf1_pattern2_cont2_shape2.png	1	2	2	2	1	3	0	0	0	0	0	0	0	0	0	0	0	0	1	22
282.62109375	0.0999971848505083	578808	148	0	stim00_sf1_pattern1_cont1_shape1.png	0	148	0	293.154999844584	293.254997029435	0.0999971848505083	stim00_sf1_pattern1_cont1_shape1.png	1	1	1	1	1	1	0	0	0	0	0	0	0	0	0	0	0	0	1	22
283.12109375	0.09999953082297	579832	149	14	stim14_sf2_pattern2_cont2_shape1.png	0	149	0	293.654989581031	293.754989111854	0.09999953082297	stim14_sf2_pattern2_cont2_shape1.png	2	2	2	1	1	4	0	0	0	0	0	0	0	0	0	0	0	0	1	22
283.62109375	0.100011847069254	580856	150	15	stim15_sf2_pattern2_cont2_shape2.png	0	150	0	294.154972572869	294.254984419938	0.100011847069254	stim15_sf2_pattern2_cont2_shape2.png	2	2	2	2	1	4	0	0	0	0	0	0	0	0	0	0	0	0	1	22
284.12109375	0.0999675671919249	581880	151	11	stim11_sf2_pattern1_cont2_shape2.png	0	151	0	294.654963482288	294.75493104948	0.0999675671919249	stim11_sf2_pattern1_cont2_shape2.png	2	1	2	2	1	4	0	0	0	0	0	0	0	0	0	0	0	0	1	22
284.62109375	0.099996598350117	582904	152	4	stim04_sf1_pattern2_cont1_shape1.png	0	152	0	295.154950872791	295.254947471141	0.099996598350117	stim04_sf1_pattern2_cont1_shape1.png	1	2	1	1	1	1	0	0	0	0	0	0	0	0	0	0	0	0	1	22
285.12109375	0.0999191818700638	583928	153	10	stim10_sf2_pattern1_cont2_shape1.png	0	153	0	295.654951459263	295.754870641133	0.0999191818700638	stim10_sf2_pattern1_cont2_shape1.png	2	1	2	1	1	4	0	0	0	0	0	0	0	0	0	0	0	0	1	22
285.62109375	0.0999980646010954	584952	154	3	stim03_sf1_pattern1_cont2_shape2.png	0	154	0	296.154927119991	296.254925184592	0.0999980646010954	stim03_sf1_pattern1_cont2_shape2.png	1	1	2	2	1	3	0	0	0	0	0	0	0	0	0	0	0	0	1	22
286.12109375	0.10002005790011	585976	155	13	stim13_sf2_pattern2_cont1_shape2.png	0	155	0	296.654916563217	296.754936621117	0.10002005790011	stim13_sf2_pattern2_cont1_shape2.png	2	2	1	2	1	2	0	0	0	0	0	0	0	0	0	0	0	0	1	22
286.62109375	0.100000410544453	587000	156	5	stim05_sf1_pattern2_cont1_shape2.png	0	156	0	297.15490336722	297.254903777764	0.100000410544453	stim05_sf1_pattern2_cont1_shape2.png	1	2	1	2	1	1	0	0	0	0	0	0	0	0	0	0	0	0	1	22
287.12109375	0.0999945456569549	588024	157	4	stim04_sf1_pattern2_cont1_shape1.png	0	157	0	297.654893103667	297.754887649324	0.0999945456569549	stim04_sf1_pattern2_cont1_shape1.png	1	2	1	1	1	1	0	0	0	0	0	0	0	0	0	0	0	0	1	22
287.62109375	0.0999986511014868	589048	158	9	stim09_sf2_pattern1_cont1_shape2.png	0	158	0	298.154881960363	298.254880611465	0.0999986511014868	stim09_sf2_pattern1_cont1_shape2.png	2	1	1	2	1	2	0	0	0	0	0	0	0	0	0	0	0	0	1	22
288.12109375	0.0999989443225786	590072	159	14	stim14_sf2_pattern2_cont2_shape1.png	0	159	0	298.654872576561	298.754871520883	0.0999989443225786	stim14_sf2_pattern2_cont2_shape1.png	2	2	2	1	1	4	0	0	0	0	0	0	0	0	0	0	0	0	1	22
288.62109375	0.100000703794649	591096	160	3	stim03_sf1_pattern1_cont2_shape2.png	0	160	0	299.154857914342	299.254858618136	0.100000703794649	stim03_sf1_pattern1_cont2_shape2.png	1	1	2	2	1	3	0	0	0	0	0	0	0	0	0	0	0	0	1	22
289.12109375	0.0999901469913311	592120	161	10	stim10_sf2_pattern1_cont2_shape1.png	0	161	0	299.654850289982	299.754840436974	0.0999901469913311	stim10_sf2_pattern1_cont2_shape1.png	2	1	2	1	1	4	0	0	0	0	0	0	0	0	0	0	0	0	1	22
289.62109375	0.0999957186286338	593144	162	15	stim15_sf2_pattern2_cont2_shape2.png	0	162	0	300.154836507514	300.254832226143	0.0999957186286338	stim15_sf2_pattern2_cont2_shape2.png	2	2	2	2	1	4	0	0	0	0	0	0	0	0	0	0	0	0	1	22
290.12109375	0.0999699131352827	594168	163	0	stim00_sf1_pattern1_cont1_shape1.png	0	163	0	300.654836214264	300.754806127399	0.0999699131352827	stim00_sf1_pattern1_cont1_shape1.png	1	1	1	1	1	1	0	0	0	0	0	0	0	0	0	0	0	0	1	22
290.62109375	0.0999963050999213	595192	164	13	stim13_sf2_pattern2_cont1_shape2.png	0	164	0	301.154812168243	301.254808473343	0.0999963050999213	stim13_sf2_pattern2_cont1_shape2.png	2	2	1	2	1	2	0	0	0	0	0	0	0	0	0	0	0	0	1	22
291.12109375	0.0999836956034414	596216	165	7	stim07_sf1_pattern2_cont2_shape2.png	0	165	0	301.654783137055	301.754766832659	0.0999836956034414	stim07_sf1_pattern2_cont2_shape2.png	1	2	2	2	1	3	0	0	0	0	0	0	0	0	0	0	0	0	1	22
291.62109375	0.0999971848505083	597240	166	6	stim06_sf1_pattern2_cont2_shape1.png	0	166	0	302.154763782921	302.254760967771	0.0999971848505083	stim06_sf1_pattern2_cont2_shape1.png	1	2	2	1	1	3	0	0	0	0	0	0	0	0	0	0	0	0	1	22
292.12109375	0.100016245734878	598264	167	11	stim11_sf2_pattern1_cont2_shape2.png	0	167	0	302.654760557227	302.754776802962	0.100016245734878	stim11_sf2_pattern1_cont2_shape2.png	2	1	2	2	1	4	0	0	0	0	0	0	0	0	0	0	0	0	1	22
292.62109375	0.0999901469913311	599288	168	12	stim12_sf2_pattern2_cont1_shape1.png	0	168	0	303.154748827452	303.254738974443	0.0999901469913311	stim12_sf2_pattern2_cont1_shape1.png	2	2	1	1	1	2	0	0	0	0	0	0	0	0	0	0	0	0	1	22
293.12109375	0.0999971848505083	600312	169	2	stim02_sf1_pattern1_cont2_shape1.png	0	169	0	303.654729766597	303.754726951447	0.0999971848505083	stim02_sf1_pattern1_cont2_shape1.png	1	1	2	1	1	3	0	0	0	0	0	0	0	0	0	0	0	0	1	22
293.62109375	0.0999960118788294	601336	170	1	stim01_sf1_pattern1_cont1_shape2.png	0	170	0	304.154729473346	304.254725485225	0.0999960118788294	stim01_sf1_pattern1_cont1_shape2.png	1	1	1	2	1	1	0	0	0	0	0	0	0	0	0	0	0	0	1	22
294.12109375	0.100005982181756	602360	171	8	stim08_sf2_pattern1_cont1_shape1.png	0	171	0	304.65470835974	304.754714341921	0.100005982181756	stim08_sf2_pattern1_cont1_shape1.png	2	1	1	1	1	2	0	0	0	0	0	0	0	0	0	0	0	0	1	22
317.34521484375	0.0999954253784381	649923	172	7	stim07_sf1_pattern2_cont2_shape2.png	1	0	0	327.879195959336	327.979191384715	0.0999954253784381	stim07_sf1_pattern2_cont2_shape2.png	1	2	2	2	1	3	0	0	0	0	0	0	0	0	0	0	0	0	1	22
317.84521484375	0.099981056409888	650947	173	3	stim03_sf1_pattern1_cont2_shape2.png	1	1	0	328.379184229561	328.479165285971	0.099981056409888	stim03_sf1_pattern1_cont2_shape2.png	1	1	2	2	1	3	0	0	0	0	0	0	0	0	0	0	0	0	1	22
318.34521484375	0.0999957186286338	651971	174	10	stim10_sf2_pattern1_cont2_shape1.png	1	2	0	328.879171033564	328.979166752193	0.0999957186286338	stim10_sf2_pattern1_cont2_shape1.png	2	1	2	1	1	4	0	0	0	0	0	0	0	0	0	0	0	0	1	22
318.84521484375	0.0999924929637928	652995	175	9	stim09_sf2_pattern1_cont1_shape2.png	1	3	0	329.379162236233	329.479154729197	0.0999924929637928	stim09_sf2_pattern1_cont1_shape2.png	2	1	1	2	1	2	0	0	0	0	0	0	0	0	0	0	0	0	1	22
319.34521484375	0.0999921997135971	654019	176	0	stim00_sf1_pattern1_cont1_shape1.png	1	4	0	329.879149333487	329.9791415332	0.0999921997135971	stim00_sf1_pattern1_cont1_shape1.png	1	1	1	1	1	1	0	0	0	0	0	0	0	0	0	0	0	0	1	22
319.84521484375	0.0999948388780467	655043	177	5	stim05_sf1_pattern2_cont1_shape2.png	1	5	0	330.379138483462	330.47913332234	0.0999948388780467	stim05_sf1_pattern2_cont1_shape2.png	1	2	1	2	1	1	0	0	0	0	0	0	0	0	0	0	0	0	1	22
320.34521484375	0.100009794376092	656067	178	6	stim06_sf1_pattern2_cont2_shape1.png	1	6	0	330.879111504968	330.979121299344	0.100009794376092	stim06_sf1_pattern2_cont2_shape1.png	1	2	2	1	1	3	0	0	0	0	0	0	0	0	0	0	0	0	1	22
320.84521484375	0.0999968916003127	657091	179	12	stim12_sf2_pattern2_cont1_shape1.png	1	7	0	331.379111798218	331.479108689819	0.0999968916003127	stim12_sf2_pattern2_cont1_shape1.png	2	2	1	1	1	2	0	0	0	0	0	0	0	0	0	0	0	0	1	22
321.34521484375	0.09999131996301	658115	180	8	stim08_sf2_pattern1_cont1_shape1.png	1	8	0	331.879106519831	331.979097839794	0.09999131996301	stim08_sf2_pattern1_cont1_shape1.png	2	1	1	1	1	2	0	0	0	0	0	0	0	0	0	0	0	0	1	22
321.84521484375	0.0999995307938661	659139	181	13	stim13_sf2_pattern2_cont1_shape2.png	1	9	0	332.379085992725	332.479085523519	0.0999995307938661	stim13_sf2_pattern2_cont1_shape2.png	2	2	1	2	1	2	0	0	0	0	0	0	0	0	0	0	0	0	1	22
322.34521484375	0.0999681536632124	660163	182	2	stim02_sf1_pattern1_cont2_shape1.png	1	10	0	332.879081300809	332.979049454472	0.0999681536632124	stim02_sf1_pattern1_cont2_shape1.png	1	1	2	1	1	3	0	0	0	0	0	0	0	0	0	0	0	0	1	22
322.84521484375	0.100017125485465	661187	183	11	stim11_sf2_pattern1_cont2_shape2.png	1	11	0	333.379047870956	333.479064996442	0.100017125485465	stim11_sf2_pattern1_cont2_shape2.png	2	1	2	2	1	4	0	0	0	0	0	0	0	0	0	0	0	0	1	22
323.34521484375	0.0999945456569549	662211	184	1	stim01_sf1_pattern1_cont1_shape2.png	1	12	0	333.879056668287	333.979051213944	0.0999945456569549	stim01_sf1_pattern1_cont1_shape2.png	1	1	1	2	1	1	0	0	0	0	0	0	0	0	0	0	0	0	1	22
323.84521484375	0.0999666874413379	663235	185	14	stim14_sf2_pattern2_cont2_shape1.png	1	13	0	334.379046991235	334.479013678676	0.0999666874413379	stim14_sf2_pattern2_cont2_shape1.png	2	2	2	1	1	4	0	0	0	0	0	0	0	0	0	0	0	0	1	22
324.34521484375	0.0999951321282424	664259	186	4	stim04_sf1_pattern2_cont1_shape1.png	1	14	0	334.879006523523	334.979001655651	0.0999951321282424	stim04_sf1_pattern2_cont1_shape1.png	1	2	1	1	1	1	0	0	0	0	0	0	0	0	0	0	0	0	1	22
324.84521484375	0.099981936160475	665283	187	15	stim15_sf2_pattern2_cont2_shape2.png	1	15	0	335.379018839769	335.479000775929	0.099981936160475	stim15_sf2_pattern2_cont2_shape2.png	2	2	2	2	1	4	0	0	0	0	0	0	0	0	0	0	0	0	1	22
325.34521484375	0.0999822294106707	666307	188	0	stim00_sf1_pattern1_cont1_shape1.png	1	16	0	335.879017080297	335.978999309707	0.0999822294106707	stim00_sf1_pattern1_cont1_shape1.png	1	1	1	1	1	1	0	0	0	0	0	0	0	0	0	0	0	0	1	22
325.84521484375	0.0999939591565635	667331	189	15	stim15_sf2_pattern2_cont2_shape2.png	1	17	0	336.378993620776	336.478987579932	0.0999939591565635	stim15_sf2_pattern2_cont2_shape2.png	2	2	2	2	1	4	0	0	0	0	0	0	0	0	0	0	0	0	1	22
326.34521484375	0.0999983578512911	668355	190	13	stim13_sf2_pattern2_cont1_shape2.png	1	18	0	336.878986876138	336.978985233989	0.0999983578512911	stim13_sf2_pattern2_cont1_shape2.png	2	2	1	2	1	2	0	0	0	0	0	0	0	0	0	0	0	0	1	22
326.84521484375	0.0999945456569549	669379	191	5	stim05_sf1_pattern2_cont1_shape2.png	1	19	0	337.378977785585	337.478972331242	0.0999945456569549	stim05_sf1_pattern2_cont1_shape2.png	1	2	1	2	1	1	0	0	0	0	0	0	0	0	0	0	0	0	1	22
327.34521484375	0.0999892672407441	670403	192	9	stim09_sf2_pattern1_cont1_shape2.png	1	20	0	337.878971920698	337.978961187939	0.0999892672407441	stim09_sf2_pattern1_cont1_shape2.png	2	1	1	2	1	2	0	0	0	0	0	0	0	0	0	0	0	0	1	22
327.84521484375	0.09999953082297	671427	193	7	stim07_sf1_pattern2_cont2_shape2.png	1	21	0	338.378950807091	338.478950337914	0.09999953082297	stim07_sf1_pattern2_cont2_shape2.png	1	2	2	2	1	3	0	0	0	0	0	0	0	0	0	0	0	0	1	22
328.34521484375	0.099996598350117	672451	194	8	stim08_sf2_pattern1_cont1_shape1.png	1	22	0	338.878948461148	338.978945059498	0.099996598350117	stim08_sf2_pattern1_cont1_shape1.png	2	1	1	1	1	2	0	0	0	0	0	0	0	0	0	0	0	0	1	22
328.84521484375	0.0999954254075419	673475	195	14	stim14_sf2_pattern2_cont2_shape1.png	1	23	0	339.378927640792	339.478923066199	0.0999954254075419	stim14_sf2_pattern2_cont2_shape1.png	2	2	2	1	1	4	0	0	0	0	0	0	0	0	0	0	0	0	1	22
329.34521484375	0.100004515959881	674499	196	10	stim10_sf2_pattern1_cont2_shape1.png	1	24	0	339.878915911017	339.978920426976	0.100004515959881	stim10_sf2_pattern1_cont2_shape1.png	2	1	2	1	1	4	0	0	0	0	0	0	0	0	0	0	0	0	1	22
329.84521484375	0.0999449873925187	675523	197	3	stim03_sf1_pattern1_cont2_shape2.png	1	25	0	340.378911512351	340.478856499743	0.0999449873925187	stim03_sf1_pattern1_cont2_shape2.png	1	1	2	2	1	3	0	0	0	0	0	0	0	0	0	0	0	0	1	22
330.34521484375	0.0999957186286338	676547	198	6	stim06_sf1_pattern2_cont2_shape1.png	1	26	0	340.878893331217	340.978889049846	0.0999957186286338	stim06_sf1_pattern2_cont2_shape1.png	1	2	2	1	1	3	0	0	0	0	0	0	0	0	0	0	0	0	1	22
330.84521484375	0.0999939591565635	677571	199	2	stim02_sf1_pattern1_cont2_shape1.png	1	27	0	341.378885120386	341.478879079543	0.0999939591565635	stim02_sf1_pattern1_cont2_shape1.png	1	1	2	1	1	3	0	0	0	0	0	0	0	0	0	0	0	0	1	22
331.3447265625	0.0999977713508997	678594	200	11	stim11_sf2_pattern1_cont2_shape2.png	1	28	0	341.878870458168	341.978868229518	0.0999977713508997	stim11_sf2_pattern1_cont2_shape2.png	2	1	2	2	1	4	0	0	0	0	0	0	0	0	0	0	0	0	1	22
331.8447265625	0.0999957186286338	679618	201	1	stim01_sf1_pattern1_cont1_shape2.png	1	29	0	342.378859608114	342.478855326743	0.0999957186286338	stim01_sf1_pattern1_cont1_shape2.png	1	1	1	2	1	1	0	0	0	0	0	0	0	0	0	0	0	0	1	22
332.3447265625	0.0999951321282424	680642	202	12	stim12_sf2_pattern2_cont1_shape1.png	1	30	0	342.878847585118	342.978842717246	0.0999951321282424	stim12_sf2_pattern2_cont1_shape1.png	2	2	1	1	1	2	0	0	0	0	0	0	0	0	0	0	0	0	1	22
332.8447265625	0.0999951321573462	681666	203	4	stim04_sf1_pattern2_cont1_shape1.png	1	31	0	343.378834975592	343.47883010775	0.0999951321573462	stim04_sf1_pattern2_cont1_shape1.png	1	2	1	1	1	1	0	0	0	0	0	0	0	0	0	0	0	0	1	22
333.3447265625	0.100009207875701	682690	204	11	stim11_sf2_pattern1_cont2_shape2.png	1	32	0	343.878812102543	343.978821310418	0.100009207875701	stim11_sf2_pattern1_cont2_shape2.png	2	1	2	2	1	4	0	0	0	0	0	0	0	0	0	0	0	0	1	22
333.8447265625	0.0999933726561721	683714	205	12	stim12_sf2_pattern2_cont1_shape1.png	1	33	0	344.378812982293	344.478806354949	0.0999933726561721	stim12_sf2_pattern2_cont1_shape1.png	2	2	1	1	1	2	0	0	0	0	0	0	0	0	0	0	0	0	1	22
334.3447265625	0.0999939591565635	684738	206	8	stim08_sf2_pattern1_cont1_shape1.png	1	34	0	344.878800666018	344.978794625174	0.0999939591565635	stim08_sf2_pattern1_cont1_shape1.png	2	1	1	1	1	2	0	0	0	0	0	0	0	0	0	0	0	0	1	22
334.8447265625	0.0999968916294165	685762	207	4	stim04_sf1_pattern2_cont1_shape1.png	1	35	0	345.378788642993	345.478785534622	0.0999968916294165	stim04_sf1_pattern2_cont1_shape1.png	1	2	1	1	1	1	0	0	0	0	0	0	0	0	0	0	0	0	1	22
335.3447265625	0.0999960118788294	686786	208	2	stim02_sf1_pattern1_cont2_shape1.png	1	36	0	345.878778086219	345.978774098097	0.0999960118788294	stim02_sf1_pattern1_cont2_shape1.png	1	1	2	1	1	3	0	0	0	0	0	0	0	0	0	0	0	0	1	22
335.8447265625	0.10002474981593	687810	209	9	stim09_sf2_pattern1_cont1_shape2.png	1	37	0	346.378738498228	346.478763248044	0.10002474981593	stim09_sf2_pattern1_cont1_shape2.png	2	1	1	2	1	2	0	0	0	0	0	0	0	0	0	0	0	0	1	22
336.3447265625	0.100000117294258	688834	210	5	stim05_sf1_pattern2_cont1_shape2.png	1	38	0	346.878753160447	346.978753277741	0.100000117294258	stim05_sf1_pattern2_cont1_shape2.png	1	2	1	2	1	1	0	0	0	0	0	0	0	0	0	0	0	0	1	22
336.8447265625	0.0999957186286338	689858	211	0	stim00_sf1_pattern1_cont1_shape1.png	1	39	0	347.378742017172	347.478737735801	0.0999957186286338	stim00_sf1_pattern1_cont1_shape1.png	1	1	1	1	1	1	0	0	0	0	0	0	0	0	0	0	0	0	1	22
337.3447265625	0.0999960118788294	690882	212	1	stim01_sf1_pattern1_cont1_shape2.png	1	40	0	347.878731460369	347.978727472248	0.0999960118788294	stim01_sf1_pattern1_cont1_shape2.png	1	1	1	2	1	1	0	0	0	0	0	0	0	0	0	0	0	0	1	22
337.8447265625	0.0999945456569549	691906	213	6	stim06_sf1_pattern2_cont2_shape1.png	1	41	0	348.378725008981	348.478719554638	0.0999945456569549	stim06_sf1_pattern2_cont2_shape1.png	1	2	2	1	1	3	0	0	0	0	0	0	0	0	0	0	0	0	1	22
338.3447265625	0.0999816428811755	692930	214	13	stim13_sf2_pattern2_cont1_shape2.png	1	42	0	348.878704481904	348.978686124785	0.0999816428811755	stim13_sf2_pattern2_cont1_shape2.png	2	2	1	2	1	2	0	0	0	0	0	0	0	0	0	0	0	0	1	22
338.8447265625	0.0999775374948513	693954	215	10	stim10_sf2_pattern1_cont2_shape1.png	1	43	0	349.378697444015	349.47867498151	0.0999775374948513	stim10_sf2_pattern1_cont2_shape1.png	2	1	2	1	1	4	0	0	0	0	0	0	0	0	0	0	0	0	1	22
339.3447265625	0.0999693266348913	694978	216	7	stim07_sf1_pattern2_cont2_shape2.png	1	44	0	349.878687766963	349.978657093598	0.0999693266348913	stim07_sf1_pattern2_cont2_shape2.png	1	2	2	2	1	3	0	0	0	0	0	0	0	0	0	0	0	0	1	22
339.8447265625	0.0999907334917225	696002	217	15	stim15_sf2_pattern2_cont2_shape2.png	1	45	0	350.378673104744	350.478663838236	0.0999907334917225	stim15_sf2_pattern2_cont2_shape2.png	2	2	2	2	1	4	0	0	0	0	0	0	0	0	0	0	0	0	1	22
340.3447265625	0.0999816429102793	697026	218	3	stim03_sf1_pattern1_cont2_shape2.png	1	46	0	350.878662841191	350.978644484101	0.0999816429102793	stim03_sf1_pattern1_cont2_shape2.png	1	1	2	2	1	3	0	0	0	0	0	0	0	0	0	0	0	0	1	22
340.8447265625	0.0999910267128143	698050	219	14	stim14_sf2_pattern2_cont2_shape1.png	1	47	0	351.378649351973	351.478640378686	0.0999910267128143	stim14_sf2_pattern2_cont2_shape1.png	2	2	2	1	1	4	0	0	0	0	0	0	0	0	0	0	0	0	1	22
341.3447265625	0.0999968916003127	699074	220	5	stim05_sf1_pattern2_cont1_shape2.png	1	48	0	351.878614749148	351.978611640749	0.0999968916003127	stim05_sf1_pattern2_cont1_shape2.png	1	2	1	2	1	1	0	0	0	0	0	0	0	0	0	0	0	0	1	22
341.8447265625	0.100029148481553	700098	221	9	stim09_sf2_pattern1_cont1_shape2.png	1	49	0	352.378627358645	352.478656507126	0.100029148481553	stim09_sf2_pattern1_cont1_shape2.png	2	1	1	2	1	2	0	0	0	0	0	0	0	0	0	0	0	0	1	22
342.3447265625	0.100017711927649	701122	222	13	stim13_sf2_pattern2_cont1_shape2.png	1	50	0	352.878595981514	352.978613693442	0.100017711927649	stim13_sf2_pattern2_cont1_shape2.png	2	2	1	2	1	2	0	0	0	0	0	0	0	0	0	0	0	0	1	22
342.8447265625	0.0999965983792208	702146	223	8	stim08_sf2_pattern1_cont1_shape1.png	1	51	0	353.378610643704	353.478607242083	0.0999965983792208	stim08_sf2_pattern1_cont1_shape1.png	2	1	1	1	1	2	0	0	0	0	0	0	0	0	0	0	0	0	1	22
343.3447265625	0.0999960118788294	703170	224	4	stim04_sf1_pattern2_cont1_shape1.png	1	52	0	353.878602139623	353.978598151502	0.0999960118788294	stim04_sf1_pattern2_cont1_shape1.png	1	2	1	1	1	1	0	0	0	0	0	0	0	0	0	0	0	0	1	22
343.8447265625	0.0999924929346889	704194	225	2	stim02_sf1_pattern1_cont2_shape1.png	1	53	0	354.378591289598	354.478583782533	0.0999924929346889	stim02_sf1_pattern1_cont2_shape1.png	1	1	2	1	1	3	0	0	0	0	0	0	0	0	0	0	0	0	1	22
344.3447265625	0.0999778307159431	705218	226	6	stim06_sf1_pattern2_cont2_shape1.png	1	54	0	354.878575747658	354.978553578374	0.0999778307159431	stim06_sf1_pattern2_cont2_shape1.png	1	2	2	1	1	3	0	0	0	0	0	0	0	0	0	0	0	0	1	22
344.8447265625	0.0999954253784381	706242	227	15	stim15_sf2_pattern2_cont2_shape2.png	1	55	0	355.378557859745	355.478553285124	0.0999954253784381	stim15_sf2_pattern2_cont2_shape2.png	2	2	2	2	1	4	0	0	0	0	0	0	0	0	0	0	0	0	1	22
345.3447265625	0.1000552472251	707266	228	10	stim10_sf2_pattern1_cont2_shape1.png	1	56	0	355.878486894624	355.978542141849	0.1000552472251	stim10_sf2_pattern1_cont2_shape1.png	2	1	2	1	1	4	0	0	0	0	0	0	0	0	0	0	0	0	1	22
345.8447265625	0.0999948389071506	708290	229	14	stim14_sf2_pattern2_cont2_shape1.png	1	57	0	356.378534400195	356.478529239102	0.0999948389071506	stim14_sf2_pattern2_cont2_shape1.png	2	2	2	1	1	4	0	0	0	0	0	0	0	0	0	0	0	0	1	22
346.3447265625	0.100011260568863	709314	230	0	stim00_sf1_pattern1_cont1_shape1.png	1	58	0	356.878505662258	356.978516922827	0.100011260568863	stim00_sf1_pattern1_cont1_shape1.png	1	1	1	1	1	1	0	0	0	0	0	0	0	0	0	0	0	0	1	22
346.8447265625	0.0999951321282424	710338	231	3	stim03_sf1_pattern1_cont2_shape2.png	1	59	0	357.378511527146	357.478506659274	0.0999951321282424	stim03_sf1_pattern1_cont2_shape2.png	1	1	2	2	1	3	0	0	0	0	0	0	0	0	0	0	0	0	1	22
347.3447265625	0.0999939591565635	711362	232	7	stim07_sf1_pattern2_cont2_shape2.png	1	60	0	357.878500090621	357.978494049778	0.0999939591565635	stim07_sf1_pattern2_cont2_shape2.png	1	2	2	2	1	3	0	0	0	0	0	0	0	0	0	0	0	0	1	22
347.8447265625	0.0999945456569549	712386	233	11	stim11_sf2_pattern1_cont2_shape2.png	1	61	0	358.378488067596	358.478482613253	0.0999945456569549	stim11_sf2_pattern1_cont2_shape2.png	2	1	2	2	1	4	0	0	0	0	0	0	0	0	0	0	0	0	1	22
348.3447265625	0.0999963051290251	713410	234	12	stim12_sf2_pattern2_cont1_shape1.png	1	62	0	358.878476337821	358.97847264295	0.0999963051290251	stim12_sf2_pattern2_cont1_shape1.png	2	2	1	1	1	2	0	0	0	0	0	0	0	0	0	0	0	0	1	22
348.84423828125	0.099993372685276	714433	235	1	stim01_sf1_pattern1_cont1_shape2.png	1	63	0	359.378463435074	359.478456807759	0.099993372685276	stim01_sf1_pattern1_cont1_shape2.png	1	1	1	2	1	1	0	0	0	0	0	0	0	0	0	0	0	0	1	22
349.34423828125	0.0999965983792208	715457	236	8	stim08_sf2_pattern1_cont1_shape1.png	1	64	0	359.878453464771	359.97845006315	0.0999965983792208	stim08_sf2_pattern1_cont1_shape1.png	2	1	1	1	1	2	0	0	0	0	0	0	0	0	0	0	0	0	1	22
349.84423828125	0.0999435211415403	716481	237	9	stim09_sf2_pattern1_cont1_shape2.png	1	65	0	360.378446133662	360.478389654803	0.0999435211415403	stim09_sf2_pattern1_cont1_shape2.png	2	1	1	2	1	2	0	0	0	0	0	0	0	0	0	0	0	0	1	22
350.34423828125	0.0999971848505083	717505	238	11	stim11_sf2_pattern1_cont2_shape2.png	1	66	0	360.878428832249	360.9784260171	0.0999971848505083	stim11_sf2_pattern1_cont2_shape2.png	2	1	2	2	1	4	0	0	0	0	0	0	0	0	0	0	0	0	1	22
350.84423828125	0.0999965983792208	718529	239	14	stim14_sf2_pattern2_cont2_shape1.png	1	67	0	361.378417102474	361.478413700854	0.0999965983792208	stim14_sf2_pattern2_cont2_shape1.png	2	2	2	1	1	4	0	0	0	0	0	0	0	0	0	0	0	0	1	22
351.34423828125	0.0999939591565635	719553	240	10	stim10_sf2_pattern1_cont2_shape1.png	1	68	0	361.878407132172	361.978401091328	0.0999939591565635	stim10_sf2_pattern1_cont2_shape1.png	2	1	2	1	1	4	0	0	0	0	0	0	0	0	0	0	0	0	1	22
351.84423828125	0.100005395681364	720577	241	2	stim02_sf1_pattern1_cont2_shape1.png	1	69	0	362.378387484816	362.478392880497	0.100005395681364	stim02_sf1_pattern1_cont2_shape1.png	1	1	2	1	1	3	0	0	0	0	0	0	0	0	0	0	0	0	1	22
352.34423828125	0.100005688960664	721601	242	1	stim01_sf1_pattern1_cont1_shape2.png	1	70	0	362.878385138843	362.978390827804	0.100005688960664	stim01_sf1_pattern1_cont1_shape2.png	1	1	1	2	1	1	0	0	0	0	0	0	0	0	0	0	0	0	1	22
352.84423828125	0.0999951321282424	722625	243	5	stim05_sf1_pattern2_cont1_shape2.png	1	71	0	363.378374288819	363.478369420947	0.0999951321282424	stim05_sf1_pattern2_cont1_shape2.png	1	2	1	2	1	1	0	0	0	0	0	0	0	0	0	0	0	0	1	22
353.34423828125	0.100002463237615	723649	244	4	stim04_sf1_pattern2_cont1_shape1.png	1	72	0	363.878358160378	363.978360623616	0.100002463237615	stim04_sf1_pattern2_cont1_shape1.png	1	2	1	1	1	1	0	0	0	0	0	0	0	0	0	0	0	0	1	22
353.84423828125	0.099993372685276	724673	245	15	stim15_sf2_pattern2_cont2_shape2.png	1	73	0	364.378352002241	364.478345374926	0.099993372685276	stim15_sf2_pattern2_cont2_shape2.png	2	2	2	2	1	4	0	0	0	0	0	0	0	0	0	0	0	0	1	22
354.34423828125	0.0999834023532458	725697	246	6	stim06_sf1_pattern2_cont2_shape1.png	1	74	0	364.878332648135	364.978316050489	0.0999834023532458	stim06_sf1_pattern2_cont2_shape1.png	1	2	2	1	1	3	0	0	0	0	0	0	0	0	0	0	0	0	1	22
354.84423828125	0.10000744840363	726721	247	13	stim13_sf2_pattern2_cont1_shape2.png	1	75	0	365.378322677803	365.478330126207	0.10000744840363	stim13_sf2_pattern2_cont1_shape2.png	2	2	1	2	1	2	0	0	0	0	0	0	0	0	0	0	0	0	1	22
355.34423828125	0.0999570103886072	727745	248	3	stim03_sf1_pattern1_cont2_shape2.png	1	76	0	365.878310068307	365.978267078695	0.0999570103886072	stim03_sf1_pattern1_cont2_shape2.png	1	1	2	2	1	3	0	0	0	0	0	0	0	0	0	0	0	0	1	22
355.84423828125	0.10001859170734	728769	249	7	stim07_sf1_pattern2_cont2_shape2.png	1	77	0	366.378279570898	366.478298162605	0.10001859170734	stim07_sf1_pattern2_cont2_shape2.png	1	2	2	2	1	3	0	0	0	0	0	0	0	0	0	0	0	0	1	22
356.34423828125	0.0999930794350803	729793	250	0	stim00_sf1_pattern1_cont1_shape1.png	1	78	0	366.878290714201	366.978283793636	0.0999930794350803	stim00_sf1_pattern1_cont1_shape1.png	1	1	1	1	1	1	0	0	0	0	0	0	0	0	0	0	0	0	1	22
356.84423828125	0.0999989443225786	730817	251	12	stim12_sf2_pattern2_cont1_shape1.png	1	79	0	367.378276931704	367.478275876027	0.0999989443225786	stim12_sf2_pattern2_cont1_shape1.png	2	2	1	1	1	2	0	0	0	0	0	0	0	0	0	0	0	0	1	22
357.34423828125	0.100002463237615	731841	252	7	stim07_sf1_pattern2_cont2_shape2.png	1	80	0	367.87826608168	367.978268544917	0.100002463237615	stim07_sf1_pattern2_cont2_shape2.png	1	2	2	2	1	3	0	0	0	0	0	0	0	0	0	0	0	0	1	22
357.84423828125	0.0999992375727743	732865	253	15	stim15_sf2_pattern2_cont2_shape2.png	1	81	0	368.378259043791	368.478258281364	0.0999992375727743	stim15_sf2_pattern2_cont2_shape2.png	2	2	2	2	1	4	0	0	0	0	0	0	0	0	0	0	0	0	1	22
358.34423828125	0.100000410544453	733889	254	2	stim02_sf1_pattern1_cont2_shape1.png	1	82	0	368.878246434295	368.978246844839	0.100000410544453	stim02_sf1_pattern1_cont2_shape1.png	1	1	2	1	1	3	0	0	0	0	0	0	0	0	0	0	0	0	1	22
358.84423828125	0.0999921997135971	734913	255	6	stim06_sf1_pattern2_cont2_shape1.png	1	83	0	369.378243501851	369.478235701565	0.0999921997135971	stim06_sf1_pattern2_cont2_shape1.png	1	2	2	1	1	3	0	0	0	0	0	0	0	0	0	0	0	0	1	22
359.34423828125	0.0999878010479733	735937	256	5	stim05_sf1_pattern2_cont1_shape2.png	1	84	0	369.878231772076	369.978219573124	0.0999878010479733	stim05_sf1_pattern2_cont1_shape2.png	1	2	1	2	1	1	0	0	0	0	0	0	0	0	0	0	0	0	1	22
359.84423828125	0.0999963051290251	736961	257	0	stim00_sf1_pattern1_cont1_shape1.png	1	85	0	370.378210658499	370.478206963628	0.0999963051290251	stim00_sf1_pattern1_cont1_shape1.png	1	1	1	1	1	1	0	0	0	0	0	0	0	0	0	0	0	0	1	22
360.34423828125	0.0999936659354717	737985	258	12	stim12_sf2_pattern2_cont1_shape1.png	1	86	0	370.878200101695	370.978193767631	0.0999936659354717	stim12_sf2_pattern2_cont1_shape1.png	2	2	1	1	1	2	0	0	0	0	0	0	0	0	0	0	0	0	1	22
360.84423828125	0.0999836956034414	739009	259	3	stim03_sf1_pattern1_cont2_shape2.png	1	87	0	371.378199221974	371.478182917577	0.0999836956034414	stim03_sf1_pattern1_cont2_shape2.png	1	1	2	2	1	3	0	0	0	0	0	0	0	0	0	0	0	0	1	22
361.34423828125	0.100004809210077	740033	260	11	stim11_sf2_pattern1_cont2_shape2.png	1	88	0	371.878175175923	371.978179985133	0.100004809210077	stim11_sf2_pattern1_cont2_shape2.png	2	1	2	2	1	4	0	0	0	0	0	0	0	0	0	0	0	0	1	22
361.84423828125	0.0999986511014868	741057	261	14	stim14_sf2_pattern2_cont2_shape1.png	1	89	0	372.378163446148	372.47816209725	0.0999986511014868	stim14_sf2_pattern2_cont2_shape1.png	2	2	2	1	1	4	0	0	0	0	0	0	0	0	0	0	0	0	1	22
362.34423828125	0.100001583516132	742081	262	4	stim04_sf1_pattern2_cont1_shape1.png	1	90	0	372.878152889374	372.97815447289	0.100001583516132	stim04_sf1_pattern2_cont1_shape1.png	1	2	1	1	1	1	0	0	0	0	0	0	0	0	0	0	0	0	1	22
362.84423828125	0.0999960118788294	743105	263	8	stim08_sf2_pattern1_cont1_shape1.png	1	91	0	373.378141159599	373.478137171478	0.0999960118788294	stim08_sf2_pattern1_cont1_shape1.png	2	1	1	1	1	2	0	0	0	0	0	0	0	0	0	0	0	0	1	22
363.34423828125	0.10002474981593	744129	264	13	stim13_sf2_pattern2_cont1_shape2.png	1	92	0	373.878103331081	373.978128080897	0.10002474981593	stim13_sf2_pattern2_cont1_shape2.png	2	2	1	2	1	2	0	0	0	0	0	0	0	0	0	0	0	0	1	22
363.84423828125	0.0999948389071506	745153	265	1	stim01_sf1_pattern1_cont1_shape2.png	1	93	0	374.378119459521	374.478114298428	0.0999948389071506	stim01_sf1_pattern1_cont1_shape2.png	1	1	1	2	1	1	0	0	0	0	0	0	0	0	0	0	0	0	1	22
364.34423828125	0.0999957186286338	746177	266	10	stim10_sf2_pattern1_cont2_shape1.png	1	94	0	374.878105090553	374.978100809181	0.0999957186286338	stim10_sf2_pattern1_cont2_shape1.png	2	1	2	1	1	4	0	0	0	0	0	0	0	0	0	0	0	0	1	22
364.84423828125	0.099997478100704	747201	267	9	stim09_sf2_pattern1_cont1_shape2.png	1	95	0	375.378095999971	375.478093478072	0.099997478100704	stim09_sf2_pattern1_cont1_shape2.png	2	1	1	2	1	2	0	0	0	0	0	0	0	0	0	0	0	0	1	22
365.34423828125	0.100001583516132	748225	268	14	stim14_sf2_pattern2_cont2_shape1.png	1	96	0	375.878083390475	375.978084973991	0.100001583516132	stim14_sf2_pattern2_cont2_shape1.png	2	2	2	1	1	4	0	0	0	0	0	0	0	0	0	0	0	0	1	22
365.84423828125	0.099997478100704	749249	269	13	stim13_sf2_pattern2_cont1_shape2.png	1	97	0	376.378070487728	376.478067965829	0.099997478100704	stim13_sf2_pattern2_cont1_shape2.png	2	2	1	2	1	2	0	0	0	0	0	0	0	0	0	0	0	0	1	22
366.34375	0.100044397200691	750272	270	2	stim02_sf1_pattern1_cont2_shape1.png	1	98	0	376.878013598325	376.978057995526	0.100044397200691	stim02_sf1_pattern1_cont2_shape1.png	1	1	2	1	1	3	0	0	0	0	0	0	0	0	0	0	0	0	1	22
366.84375	0.0999980645719916	751296	271	8	stim08_sf2_pattern1_cont1_shape1.png	1	99	0	377.378047614679	377.47804567925	0.0999980645719916	stim08_sf2_pattern1_cont1_shape1.png	2	1	1	1	1	2	0	0	0	0	0	0	0	0	0	0	0	0	1	22
367.34375	0.0999954253784381	752320	272	1	stim01_sf1_pattern1_cont1_shape2.png	1	100	0	377.878035591653	377.978031017032	0.0999954253784381	stim01_sf1_pattern1_cont1_shape2.png	1	1	1	2	1	1	0	0	0	0	0	0	0	0	0	0	0	0	1	22
367.84375	0.0999936659354717	753344	273	12	stim12_sf2_pattern2_cont1_shape1.png	1	101	0	378.378027674044	378.478021339979	0.0999936659354717	stim12_sf2_pattern2_cont1_shape1.png	2	2	1	1	1	2	0	0	0	0	0	0	0	0	0	0	0	0	1	22
368.34375	0.0999948389071506	754368	274	5	stim05_sf1_pattern2_cont1_shape2.png	1	102	0	378.878018876712	378.978013715619	0.0999948389071506	stim05_sf1_pattern2_cont1_shape2.png	1	2	1	2	1	1	0	0	0	0	0	0	0	0	0	0	0	0	1	22
368.84375	0.0999960118788294	755392	275	6	stim06_sf1_pattern2_cont2_shape1.png	1	103	0	379.37797870225	379.477974714129	0.0999960118788294	stim06_sf1_pattern2_cont2_shape1.png	1	2	2	1	1	3	0	0	0	0	0	0	0	0	0	0	0	0	1	22
369.34375	0.0999921996844932	756416	276	15	stim15_sf2_pattern2_cont2_shape2.png	1	104	0	379.877973423863	379.977965623548	0.0999921996844932	stim15_sf2_pattern2_cont2_shape2.png	2	2	2	2	1	4	0	0	0	0	0	0	0	0	0	0	0	0	1	22
369.84375	0.100002756487811	757440	277	3	stim03_sf1_pattern1_cont2_shape2.png	1	105	0	380.377952896757	380.477955653245	0.100002756487811	stim03_sf1_pattern1_cont2_shape2.png	1	1	2	2	1	3	0	0	0	0	0	0	0	0	0	0	0	0	1	22
370.34375	0.0999957186286338	758464	278	0	stim00_sf1_pattern1_cont1_shape1.png	1	106	0	380.877942339954	380.977938058582	0.0999957186286338	stim00_sf1_pattern1_cont1_shape1.png	1	1	1	1	1	1	0	0	0	0	0	0	0	0	0	0	0	0	1	22
370.84375	0.100002463237615	759488	279	11	stim11_sf2_pattern1_cont2_shape2.png	1	107	0	381.377930316958	381.477932780195	0.100002463237615	stim11_sf2_pattern1_cont2_shape2.png	2	1	2	2	1	4	0	0	0	0	0	0	0	0	0	0	0	0	1	22
371.34375	0.099996598350117	760512	280	4	stim04_sf1_pattern2_cont1_shape1.png	1	108	0	381.877918880433	381.977915478783	0.099996598350117	stim04_sf1_pattern2_cont1_shape1.png	1	2	1	1	1	1	0	0	0	0	0	0	0	0	0	0	0	0	1	22
371.84375	0.0999930794350803	761536	281	9	stim09_sf2_pattern1_cont1_shape2.png	1	109	0	382.377913308766	382.477906388202	0.0999930794350803	stim09_sf2_pattern1_cont1_shape2.png	2	1	1	2	1	2	0	0	0	0	0	0	0	0	0	0	0	0	1	22
372.34375	0.0999775374657474	762560	282	10	stim10_sf2_pattern1_cont2_shape1.png	1	110	0	382.877925918292	382.977903455758	0.0999775374657474	stim10_sf2_pattern1_cont2_shape1.png	2	1	2	1	1	4	0	0	0	0	0	0	0	0	0	0	0	0	1	22
372.84375	0.0999998240440618	763584	283	7	stim07_sf1_pattern2_cont2_shape2.png	1	111	0	383.377913015545	383.477912839589	0.0999998240440618	stim07_sf1_pattern2_cont2_shape2.png	1	2	2	2	1	3	0	0	0	0	0	0	0	0	0	0	0	0	1	22
373.34375	0.100002170016523	764608	284	9	stim09_sf2_pattern1_cont1_shape2.png	1	112	0	383.877903924964	383.97790609498	0.100002170016523	stim09_sf2_pattern1_cont1_shape2.png	2	1	1	2	1	2	0	0	0	0	0	0	0	0	0	0	0	0	1	22
373.84375	0.100013606541324	765632	285	5	stim05_sf1_pattern2_cont1_shape2.png	1	113	0	384.377892488439	384.47790609498	0.100013606541324	stim05_sf1_pattern2_cont1_shape2.png	1	2	1	2	1	1	0	0	0	0	0	0	0	0	0	0	0	0	1	22
374.34375	0.10000392945949	766656	286	10	stim10_sf2_pattern1_cont2_shape1.png	1	114	0	384.877879585692	384.977883515152	0.10000392945949	stim10_sf2_pattern1_cont2_shape1.png	2	1	2	1	1	4	0	0	0	0	0	0	0	0	0	0	0	0	1	22
374.84375	0.0999939591565635	767680	287	3	stim03_sf1_pattern1_cont2_shape2.png	1	115	0	385.377873427555	385.477867386711	0.0999939591565635	stim03_sf1_pattern1_cont2_shape2.png	1	1	2	2	1	3	0	0	0	0	0	0	0	0	0	0	0	0	1	22
375.34375	0.0999957186577376	768704	288	2	stim02_sf1_pattern1_cont2_shape1.png	1	116	0	385.877852607198	385.977848325856	0.0999957186577376	stim02_sf1_pattern1_cont2_shape1.png	1	1	2	1	1	3	0	0	0	0	0	0	0	0	0	0	0	0	1	22
375.84375	0.0999927861848846	769728	289	7	stim07_sf1_pattern2_cont2_shape2.png	1	117	0	386.377842930146	386.47783571633	0.0999927861848846	stim07_sf1_pattern2_cont2_shape2.png	1	2	2	2	1	3	0	0	0	0	0	0	0	0	0	0	0	0	1	22
376.34375	0.0999842821038328	770752	290	11	stim11_sf2_pattern1_cont2_shape2.png	1	118	0	386.877842050424	386.977826332528	0.0999842821038328	stim11_sf2_pattern1_cont2_shape2.png	2	1	2	2	1	4	0	0	0	0	0	0	0	0	0	0	0	0	1	22
376.84375	0.0999951321573462	771776	291	1	stim01_sf1_pattern1_cont1_shape2.png	1	119	0	387.377816538152	387.477811670309	0.0999951321573462	stim01_sf1_pattern1_cont1_shape2.png	1	1	1	2	1	1	0	0	0	0	0	0	0	0	0	0	0	0	1	22
377.34375	0.0999408819479868	772800	292	4	stim04_sf1_pattern2_cont1_shape1.png	1	120	0	387.877806861099	387.977747743047	0.0999408819479868	stim04_sf1_pattern2_cont1_shape1.png	1	2	1	1	1	1	0	0	0	0	0	0	0	0	0	0	0	0	1	22
377.84375	0.099996598350117	773824	293	6	stim06_sf1_pattern2_cont2_shape1.png	1	121	0	388.377793958352	388.477790556703	0.099996598350117	stim06_sf1_pattern2_cont2_shape1.png	1	2	2	1	1	3	0	0	0	0	0	0	0	0	0	0	0	0	1	22
378.34375	0.0999927861848846	774848	294	12	stim12_sf2_pattern2_cont1_shape1.png	1	122	0	388.877785161021	388.977777947206	0.0999927861848846	stim12_sf2_pattern2_cont1_shape1.png	2	2	1	1	1	2	0	0	0	0	0	0	0	0	0	0	0	0	1	22
378.84375	0.0999948388780467	775872	295	14	stim14_sf2_pattern2_cont2_shape1.png	1	123	0	389.377771085303	389.477765924181	0.0999948388780467	stim14_sf2_pattern2_cont2_shape1.png	2	2	2	1	1	4	0	0	0	0	0	0	0	0	0	0	0	0	1	22
379.34375	0.100013899762416	776896	296	0	stim00_sf1_pattern1_cont1_shape1.png	1	124	0	389.877742054116	389.977755953878	0.100013899762416	stim00_sf1_pattern1_cont1_shape1.png	1	1	1	1	1	1	0	0	0	0	0	0	0	0	0	0	0	0	1	22
379.84375	0.0999963051290251	777920	297	8	stim08_sf2_pattern1_cont1_shape1.png	1	125	0	390.377747625753	390.477743930882	0.0999963051290251	stim08_sf2_pattern1_cont1_shape1.png	2	1	1	1	1	2	0	0	0	0	0	0	0	0	0	0	0	0	1	22
380.34375	0.0999951321282424	778944	298	13	stim13_sf2_pattern2_cont1_shape2.png	1	126	0	390.87773765545	390.977732787578	0.0999951321282424	stim13_sf2_pattern2_cont1_shape2.png	2	2	1	2	1	2	0	0	0	0	0	0	0	0	0	0	0	0	1	22
380.84375	0.0999939591565635	779968	299	15	stim15_sf2_pattern2_cont2_shape2.png	1	127	0	391.377725632425	391.477719591581	0.0999939591565635	stim15_sf2_pattern2_cont2_shape2.png	2	2	2	2	1	4	0	0	0	0	0	0	0	0	0	0	0	0	1	22
381.34375	0.0999965983792208	780992	300	8	stim08_sf2_pattern1_cont1_shape1.png	1	128	0	391.87771390265	391.977710501029	0.0999965983792208	stim08_sf2_pattern1_cont1_shape1.png	2	1	1	1	1	2	0	0	0	0	0	0	0	0	0	0	0	0	1	22
381.84375	0.0999939591565635	782016	301	13	stim13_sf2_pattern2_cont1_shape2.png	1	129	0	392.377701586403	392.47769554556	0.0999939591565635	stim13_sf2_pattern2_cont1_shape2.png	2	2	1	2	1	2	0	0	0	0	0	0	0	0	0	0	0	0	1	22
382.34375	0.0999921996844932	783040	302	4	stim04_sf1_pattern2_cont1_shape1.png	1	130	0	392.877692789072	392.977684988757	0.0999921996844932	stim04_sf1_pattern2_cont1_shape1.png	1	2	1	1	1	1	0	0	0	0	0	0	0	0	0	0	0	0	1	22
382.84375	0.0999977713508997	784064	303	15	stim15_sf2_pattern2_cont2_shape2.png	1	131	0	393.377676660632	393.477674431982	0.0999977713508997	stim15_sf2_pattern2_cont2_shape2.png	2	2	2	2	1	4	0	0	0	0	0	0	0	0	0	0	0	0	1	22
383.34375	0.0999965983792208	785088	304	9	stim09_sf2_pattern1_cont1_shape2.png	1	132	0	393.877666397078	393.977662995458	0.0999965983792208	stim09_sf2_pattern1_cont1_shape2.png	2	1	1	2	1	2	0	0	0	0	0	0	0	0	0	0	0	0	1	22
383.84326171875	0.0999980645719916	786111	305	0	stim00_sf1_pattern1_cont1_shape1.png	1	133	0	394.377654960554	394.477653025126	0.0999980645719916	stim00_sf1_pattern1_cont1_shape1.png	1	1	1	1	1	1	0	0	0	0	0	0	0	0	0	0	0	0	1	22
384.34326171875	0.0999658076907508	787135	306	14	stim14_sf2_pattern2_cont2_shape1.png	1	134	0	394.877648215945	394.977614023635	0.0999658076907508	stim14_sf2_pattern2_cont2_shape1.png	2	2	2	1	1	4	0	0	0	0	0	0	0	0	0	0	0	0	1	22
384.84326171875	0.0999766577442642	788159	307	5	stim05_sf1_pattern2_cont1_shape2.png	1	135	0	395.37762944831	395.477606106055	0.0999766577442642	stim05_sf1_pattern2_cont1_shape2.png	1	2	1	2	1	1	0	0	0	0	0	0	0	0	0	0	0	0	1	22
385.34326171875	0.0999775374657474	789183	308	3	stim03_sf1_pattern1_cont2_shape2.png	1	136	0	395.877620650979	395.977598188445	0.0999775374657474	stim03_sf1_pattern1_cont2_shape2.png	1	1	2	2	1	3	0	0	0	0	0	0	0	0	0	0	0	0	1	22
385.84326171875	0.0999678604421206	790207	309	10	stim10_sf2_pattern1_cont2_shape1.png	1	137	0	396.377612733369	396.477580593812	0.0999678604421206	stim10_sf2_pattern1_cont2_shape1.png	2	1	2	1	1	4	0	0	0	0	0	0	0	0	0	0	0	0	1	22
386.34326171875	0.100002463266719	791231	310	8	stim08_sf2_pattern1_cont1_shape1.png	1	138	1	396.877595138707	396.977597601974	0.100002463266719	stim08_sf2_pattern1_cont1_shape1.png	2	1	1	1	1	2	0	0	0	0	0	0	0	0	0	0	0	0	1	22
386.84326171875	0.0999746050511021	792255	311	8	stim08_sf2_pattern1_cont1_shape1.png	1	139	1	397.37758223596	397.477556841011	0.0999746050511021	stim08_sf2_pattern1_cont1_shape1.png	2	1	1	1	1	2	0	0	0	0	0	0	0	0	0	0	0	0	1	22
387.34326171875	0.099969619885087	793279	312	1	stim01_sf1_pattern1_cont1_shape2.png	1	140	2	397.877579303517	397.977548923402	0.099969619885087	stim01_sf1_pattern1_cont1_shape2.png	1	1	1	2	1	1	0	0	0	0	0	0	0	0	0	0	0	0	1	22
387.84326171875	0.0999766577733681	794303	313	4	stim04_sf1_pattern2_cont1_shape1.png	1	141	2	398.377560242632	398.477536900406	0.0999766577733681	stim04_sf1_pattern2_cont1_shape1.png	1	2	1	1	1	1	0	0	0	0	0	0	0	0	0	0	0	0	1	22
388.34326171875	0.0999927861848846	795327	314	7	stim07_sf1_pattern2_cont2_shape2.png	1	142	0	398.877557603439	398.977550389624	0.0999927861848846	stim07_sf1_pattern2_cont2_shape2.png	1	2	2	2	1	3	0	0	0	0	0	0	0	0	0	0	0	0	1	22
388.84326171875	0.0999760712438729	796351	315	1	stim01_sf1_pattern1_cont1_shape2.png	1	143	0	399.377539715555	399.477515786799	0.0999760712438729	stim01_sf1_pattern1_cont1_shape2.png	1	1	1	2	1	1	0	0	0	0	0	0	0	0	0	0	0	0	1	22
389.34326171875	0.0999965983792208	797375	316	11	stim11_sf2_pattern1_cont2_shape2.png	1	144	0	399.877532970917	399.977529569296	0.0999965983792208	stim11_sf2_pattern1_cont2_shape2.png	2	1	2	2	1	4	0	0	0	0	0	0	0	0	0	0	0	0	1	22
389.84326171875	0.100002463266719	798399	317	12	stim12_sf2_pattern2_cont1_shape1.png	1	145	0	400.377518601948	400.477521065215	0.100002463266719	stim12_sf2_pattern2_cont1_shape1.png	2	2	1	1	1	2	0	0	0	0	0	0	0	0	0	0	0	0	1	22
390.34326171875	0.0999998240440618	799423	318	6	stim06_sf1_pattern2_cont2_shape1.png	1	146	0	400.87751215059	400.977511974634	0.0999998240440618	stim06_sf1_pattern2_cont2_shape1.png	1	2	2	1	1	3	0	0	0	0	0	0	0	0	0	0	0	0	1	22
390.84326171875	0.0999910267128143	800447	319	2	stim02_sf1_pattern1_cont2_shape1.png	1	147	0	401.377500714065	401.477491740778	0.0999910267128143	stim02_sf1_pattern1_cont2_shape1.png	1	1	2	1	1	3	0	0	0	0	0	0	0	0	0	0	0	0	1	22
391.34326171875	0.100059645890724	801471	320	5	stim05_sf1_pattern2_cont1_shape2.png	1	148	0	401.87741919214	401.977478838031	0.100059645890724	stim05_sf1_pattern2_cont1_shape2.png	1	2	1	2	1	1	0	0	0	0	0	0	0	0	0	0	0	0	1	22
391.84326171875	0.0999945456569549	802495	321	11	stim11_sf2_pattern1_cont2_shape2.png	1	149	0	402.377470509877	402.477465055534	0.0999945456569549	stim11_sf2_pattern1_cont2_shape2.png	2	1	2	2	1	4	0	0	0	0	0	0	0	0	0	0	0	0	1	22
392.34326171875	0.0999965983792208	803519	322	4	stim04_sf1_pattern2_cont1_shape1.png	1	150	0	402.877459073352	402.977455671731	0.0999965983792208	stim04_sf1_pattern2_cont1_shape1.png	1	2	1	1	1	1	0	0	0	0	0	0	0	0	0	0	0	0	1	22
392.84326171875	0.099994252435863	804543	323	7	stim07_sf1_pattern2_cont2_shape2.png	1	151	0	403.377447343577	403.477441596013	0.099994252435863	stim07_sf1_pattern2_cont2_shape2.png	1	2	2	2	1	3	0	0	0	0	0	0	0	0	0	0	0	0	1	22
393.34326171875	0.100004222709686	805567	324	12	stim12_sf2_pattern2_cont1_shape1.png	1	152	0	403.877435027331	403.97743925004	0.100004222709686	stim12_sf2_pattern2_cont1_shape1.png	2	2	1	1	1	2	0	0	0	0	0	0	0	0	0	0	0	0	1	22
393.84326171875	0.0999948389071506	806591	325	14	stim14_sf2_pattern2_cont2_shape1.png	1	153	0	404.377425936749	404.477420775656	0.0999948389071506	stim14_sf2_pattern2_cont2_shape1.png	2	2	2	1	1	4	0	0	0	0	0	0	0	0	0	0	0	0	1	22
394.34326171875	0.0999960118788294	807615	326	1	stim01_sf1_pattern1_cont1_shape2.png	1	154	0	404.877413913753	404.977409925632	0.0999960118788294	stim01_sf1_pattern1_cont1_shape2.png	1	1	1	2	1	1	0	0	0	0	0	0	0	0	0	0	0	0	1	22
394.84326171875	0.0999965983792208	808639	327	6	stim06_sf1_pattern2_cont2_shape1.png	1	155	0	405.377399838006	405.477396436385	0.0999965983792208	stim06_sf1_pattern2_cont2_shape1.png	1	2	2	1	1	3	0	0	0	0	0	0	0	0	0	0	0	0	1	22
395.34326171875	0.100024456594838	809663	328	9	stim09_sf2_pattern1_cont1_shape2.png	1	156	0	405.877363768959	405.977388225554	0.100024456594838	stim09_sf2_pattern1_cont1_shape2.png	2	1	1	2	1	2	0	0	0	0	0	0	0	0	0	0	0	0	1	22
395.84326171875	0.0999939591565635	810687	329	3	stim03_sf1_pattern1_cont2_shape2.png	1	157	0	406.377378431178	406.477372390334	0.0999939591565635	stim03_sf1_pattern1_cont2_shape2.png	1	1	2	2	1	3	0	0	0	0	0	0	0	0	0	0	0	0	1	22
396.34326171875	0.0999983578221872	811711	330	2	stim02_sf1_pattern1_cont2_shape1.png	1	158	0	406.877366114932	406.977364472754	0.0999983578221872	stim02_sf1_pattern1_cont2_shape1.png	1	1	2	1	1	3	0	0	0	0	0	0	0	0	0	0	0	0	1	22
396.84326171875	0.0999942524067592	812735	331	0	stim00_sf1_pattern1_cont1_shape1.png	1	159	0	407.377355264878	407.477349517285	0.0999942524067592	stim00_sf1_pattern1_cont1_shape1.png	1	1	1	1	1	1	0	0	0	0	0	0	0	0	0	0	0	0	1	22
397.34326171875	0.099997478100704	813759	332	13	stim13_sf2_pattern2_cont1_shape2.png	1	160	0	407.877342655382	407.977340133482	0.099997478100704	stim13_sf2_pattern2_cont1_shape2.png	2	2	1	2	1	2	0	0	0	0	0	0	0	0	0	0	0	0	1	22
397.84326171875	0.0999822293815669	814783	333	10	stim10_sf2_pattern1_cont2_shape1.png	1	161	0	408.377342948632	408.477325178013	0.0999822293815669	stim10_sf2_pattern1_cont2_shape1.png	2	1	2	1	1	4	0	0	0	0	0	0	0	0	0	0	0	0	1	22
398.34326171875	0.0999957186286338	815807	334	8	stim08_sf2_pattern1_cont1_shape1.png	1	162	0	408.877319782332	408.977315500961	0.0999957186286338	stim08_sf2_pattern1_cont1_shape1.png	2	1	1	1	1	2	0	0	0	0	0	0	0	0	0	0	0	0	1	22
398.84326171875	0.0999960118788294	816831	335	15	stim15_sf2_pattern2_cont2_shape2.png	1	163	0	409.377308052557	409.477304064436	0.0999960118788294	stim15_sf2_pattern2_cont2_shape2.png	2	2	2	2	1	4	0	0	0	0	0	0	0	0	0	0	0	0	1	22
453.21630859375	0.0999992375727743	928187	336	11	stim11_sf2_pattern1_cont2_shape2.png	2	0	0	463.751041457115	463.851040694688	0.0999992375727743	stim11_sf2_pattern1_cont2_shape2.png	2	1	2	2	1	4	0	0	0	0	0	0	0	0	0	0	0	0	1	22
453.71630859375	0.100017418706557	929211	337	3	stim03_sf1_pattern1_cont2_shape2.png	2	1	0	464.251028847619	464.351046266325	0.100017418706557	stim03_sf1_pattern1_cont2_shape2.png	1	1	2	2	1	3	0	0	0	0	0	0	0	0	0	0	0	0	1	22
454.21630859375	0.100062285084277	930235	338	2	stim02_sf1_pattern1_cont2_shape1.png	2	2	0	464.7509910191	464.851053304184	0.100062285084277	stim02_sf1_pattern1_cont2_shape1.png	1	1	2	1	1	3	0	0	0	0	0	0	0	0	0	0	0	0	1	22
454.71630859375	0.0999860415759031	931259	339	9	stim09_sf2_pattern1_cont1_shape2.png	2	3	0	465.2510147719	465.351000813476	0.0999860415759031	stim09_sf2_pattern1_cont1_shape2.png	2	1	1	2	1	2	0	0	0	0	0	0	0	0	0	0	0	0	1	22
455.21630859375	0.0992989701917395	932283	340	10	stim10_sf2_pattern1_cont2_shape1.png	2	4	0	465.751689233759	465.850988203951	0.0992989701917395	stim10_sf2_pattern1_cont2_shape1.png	2	1	2	1	1	4	0	0	0	0	0	0	0	0	0	0	0	0	1	22
455.71630859375	0.0999951321573462	933307	341	0	stim00_sf1_pattern1_cont1_shape1.png	2	5	0	466.250983687991	466.350978820148	0.0999951321573462	stim00_sf1_pattern1_cont1_shape1.png	1	1	1	1	1	1	0	0	0	0	0	0	0	0	0	0	0	0	1	22
456.21630859375	0.0999951321282424	934331	342	8	stim08_sf2_pattern1_cont1_shape1.png	2	6	0	466.750971371745	466.850966503873	0.0999951321282424	stim08_sf2_pattern1_cont1_shape1.png	2	1	1	1	1	2	0	0	0	0	0	0	0	0	0	0	0	0	1	22
456.71630859375	0.0999957186286338	935355	343	5	stim05_sf1_pattern2_cont1_shape2.png	2	7	0	467.250958175748	467.350953894376	0.0999957186286338	stim05_sf1_pattern2_cont1_shape2.png	1	2	1	2	1	1	0	0	0	0	0	0	0	0	0	0	0	0	1	22
457.21630859375	0.0999464535852894	936379	344	12	stim12_sf2_pattern2_cont1_shape1.png	2	8	0	467.750948205445	467.85089465903	0.0999464535852894	stim12_sf2_pattern2_cont1_shape1.png	2	2	1	1	1	2	0	0	0	0	0	0	0	0	0	0	0	0	1	22
457.71630859375	0.099997478100704	937403	345	4	stim04_sf1_pattern2_cont1_shape1.png	2	9	0	468.250934716198	468.350932194298	0.099997478100704	stim04_sf1_pattern2_cont1_shape1.png	1	2	1	1	1	1	0	0	0	0	0	0	0	0	0	0	0	0	1	22
458.21630859375	0.100003049738007	938427	346	1	stim01_sf1_pattern1_cont1_shape2.png	2	10	0	468.750925039145	468.850928088883	0.100003049738007	stim01_sf1_pattern1_cont1_shape2.png	1	1	1	2	1	1	0	0	0	0	0	0	0	0	0	0	0	0	1	22
458.71630859375	0.100039118813584	939451	347	13	stim13_sf2_pattern2_cont1_shape2.png	2	11	0	469.250867563242	469.350906682055	0.100039118813584	stim13_sf2_pattern2_cont1_shape2.png	2	2	1	2	1	2	0	0	0	0	0	0	0	0	0	0	0	0	1	22
459.21630859375	0.0999954253784381	940475	348	7	stim07_sf1_pattern2_cont2_shape2.png	2	12	0	469.750901286345	469.850896711723	0.0999954253784381	stim07_sf1_pattern2_cont2_shape2.png	1	2	2	2	1	3	0	0	0	0	0	0	0	0	0	0	0	0	1	22
459.71630859375	0.0999998240731657	941499	349	6	stim06_sf1_pattern2_cont2_shape1.png	2	13	0	470.250886624126	470.350886448199	0.0999998240731657	stim06_sf1_pattern2_cont2_shape1.png	1	2	2	1	1	3	0	0	0	0	0	0	0	0	0	0	0	0	1	22
460.21630859375	0.099994545627851	942523	350	15	stim15_sf2_pattern2_cont2_shape2.png	2	14	0	470.750877533574	470.850872079202	0.099994545627851	stim15_sf2_pattern2_cont2_shape2.png	2	2	2	2	1	4	0	0	0	0	0	0	0	0	0	0	0	0	1	22
460.71630859375	0.0999960118788294	943547	351	14	stim14_sf2_pattern2_cont2_shape1.png	2	15	0	471.250867270021	471.350863281899	0.0999960118788294	stim14_sf2_pattern2_cont2_shape1.png	2	2	2	1	1	4	0	0	0	0	0	0	0	0	0	0	0	0	1	22
461.21630859375	0.09999953082297	944571	352	5	stim05_sf1_pattern2_cont1_shape2.png	2	16	0	471.750857592939	471.850857123762	0.09999953082297	stim05_sf1_pattern2_cont1_shape2.png	1	2	1	2	1	1	0	0	0	0	0	0	0	0	0	0	0	0	1	22
461.71630859375	0.0999971848796122	945595	353	11	stim11_sf2_pattern1_cont2_shape2.png	2	17	0	472.250838532054	472.350835716934	0.0999971848796122	stim11_sf2_pattern1_cont2_shape2.png	2	1	2	2	1	4	0	0	0	0	0	0	0	0	0	0	0	0	1	22
462.21630859375	0.0999942524067592	946619	354	2	stim02_sf1_pattern1_cont2_shape1.png	2	18	0	472.750829148252	472.850823400659	0.0999942524067592	stim02_sf1_pattern1_cont2_shape1.png	1	1	2	1	1	3	0	0	0	0	0	0	0	0	0	0	0	0	1	22
462.71630859375	0.0999948389071506	947643	355	0	stim00_sf1_pattern1_cont1_shape1.png	2	19	0	473.250816831976	473.350811670884	0.0999948389071506	stim00_sf1_pattern1_cont1_shape1.png	1	1	1	1	1	1	0	0	0	0	0	0	0	0	0	0	0	0	1	22
463.21630859375	0.100009501096793	948667	356	10	stim10_sf2_pattern1_cont2_shape1.png	2	20	1	473.750790440012	473.850799941109	0.100009501096793	stim10_sf2_pattern1_cont2_shape1.png	2	1	2	1	1	4	0	0	0	0	0	0	0	0	0	0	0	0	1	22
463.71630859375	0.099997478100704	949691	357	10	stim10_sf2_pattern1_cont2_shape1.png	2	21	1	474.250793079205	474.350790557306	0.099997478100704	stim10_sf2_pattern1_cont2_shape1.png	2	1	2	1	1	4	0	0	0	0	0	0	0	0	0	0	0	0	1	22
464.21630859375	0.0999942524067592	950715	358	4	stim04_sf1_pattern2_cont1_shape1.png	2	22	2	474.750789853511	474.850784105918	0.0999942524067592	stim04_sf1_pattern2_cont1_shape1.png	1	2	1	1	1	1	0	0	0	0	0	0	0	0	0	0	0	0	1	22
464.71630859375	0.100024163315538	951739	359	5	stim05_sf1_pattern2_cont1_shape2.png	2	23	2	475.250747039856	475.350771203171	0.100024163315538	stim05_sf1_pattern2_cont1_shape2.png	1	2	1	2	1	1	0	0	0	0	0	0	0	0	0	0	0	0	1	22
465.21630859375	0.0999916132132057	952763	360	14	stim14_sf2_pattern2_cont2_shape1.png	2	24	0	475.750761115574	475.850752728787	0.0999916132132057	stim14_sf2_pattern2_cont2_shape1.png	2	2	2	1	1	4	0	0	0	0	0	0	0	0	0	0	0	0	1	22
465.71630859375	0.100004515959881	953787	361	8	stim08_sf2_pattern1_cont1_shape1.png	2	25	0	476.250696601841	476.350701117801	0.100004515959881	stim08_sf2_pattern1_cont1_shape1.png	2	1	1	1	1	2	0	0	0	0	0	0	0	0	0	0	0	0	1	22
466.21630859375	0.0999822294106707	954811	362	12	stim12_sf2_pattern2_cont1_shape1.png	2	26	0	476.750747626327	476.850729855738	0.0999822294106707	stim12_sf2_pattern2_cont1_shape1.png	2	2	1	1	1	2	0	0	0	0	0	0	0	0	0	0	0	0	1	22
466.71630859375	0.0999889740196522	955835	363	15	stim15_sf2_pattern2_cont2_shape2.png	2	27	0	477.250734723581	477.3507236976	0.0999889740196522	stim15_sf2_pattern2_cont2_shape2.png	2	2	2	2	1	4	0	0	0	0	0	0	0	0	0	0	0	0	1	22
467.21630859375	0.0999681536632124	956859	364	3	stim03_sf1_pattern1_cont2_shape2.png	2	28	0	477.750726219499	477.850694373163	0.0999681536632124	stim03_sf1_pattern1_cont2_shape2.png	1	1	2	2	1	3	0	0	0	0	0	0	0	0	0	0	0	0	1	22
467.71630859375	0.0999904402415268	957883	365	7	stim07_sf1_pattern2_cont2_shape2.png	2	29	0	478.250707158615	478.350697598857	0.0999904402415268	stim07_sf1_pattern2_cont2_shape2.png	1	2	2	2	1	3	0	0	0	0	0	0	0	0	0	0	0	0	1	22
468.21630859375	0.0999919064634014	958907	366	9	stim09_sf2_pattern1_cont1_shape2.png	2	30	0	478.750694549119	478.850686455582	0.0999919064634014	stim09_sf2_pattern1_cont1_shape2.png	2	1	1	2	1	2	0	0	0	0	0	0	0	0	0	0	0	0	1	22
468.71630859375	0.100003049738007	959931	367	1	stim01_sf1_pattern1_cont1_shape2.png	2	31	0	479.250681353122	479.35068440286	0.100003049738007	stim01_sf1_pattern1_cont1_shape2.png	1	1	1	2	1	1	0	0	0	0	0	0	0	0	0	0	0	0	1	22
469.21630859375	0.0999968916003127	960955	368	10	stim10_sf2_pattern1_cont2_shape1.png	2	32	0	479.750667277403	479.850664169004	0.0999968916003127	stim10_sf2_pattern1_cont2_shape1.png	2	1	2	1	1	4	0	0	0	0	0	0	0	0	0	0	0	0	1	22
469.71630859375	0.100006275431952	961979	369	6	stim06_sf1_pattern2_cont2_shape1.png	2	33	0	480.250654374657	480.350660650089	0.100006275431952	stim06_sf1_pattern2_cont2_shape1.png	1	2	2	1	1	3	0	0	0	0	0	0	0	0	0	0	0	0	1	22
470.2158203125	0.0999930794350803	963002	370	13	stim13_sf2_pattern2_cont1_shape2.png	2	34	0	480.750644697575	480.85063777701	0.0999930794350803	stim13_sf2_pattern2_cont1_shape2.png	2	2	1	2	1	2	0	0	0	0	0	0	0	0	0	0	0	0	1	22
470.7158203125	0.0999986510723829	964026	371	4	stim04_sf1_pattern2_cont1_shape1.png	2	35	0	481.250631501607	481.35063015268	0.0999986510723829	stim04_sf1_pattern2_cont1_shape1.png	1	2	1	1	1	1	0	0	0	0	0	0	0	0	0	0	0	0	1	22
471.2158203125	0.0999971848505083	965050	372	15	stim15_sf2_pattern2_cont2_shape2.png	2	36	0	481.750621238054	481.850618422905	0.0999971848505083	stim15_sf2_pattern2_cont2_shape2.png	2	2	2	2	1	4	0	0	0	0	0	0	0	0	0	0	0	0	1	22
471.7158203125	0.0999309116450604	966074	373	12	stim12_sf2_pattern2_cont1_shape1.png	2	37	0	482.250608335307	482.350539246952	0.0999309116450604	stim12_sf2_pattern2_cont1_shape1.png	2	2	1	1	1	2	0	0	0	0	0	0	0	0	0	0	0	0	1	22
472.2158203125	0.0999687401636038	967098	374	9	stim09_sf2_pattern1_cont1_shape2.png	2	38	0	482.750598951476	482.850567691639	0.0999687401636038	stim09_sf2_pattern1_cont1_shape2.png	2	1	1	2	1	2	0	0	0	0	0	0	0	0	0	0	0	0	1	22
472.7158203125	0.0999986510723829	968122	375	11	stim11_sf2_pattern1_cont2_shape2.png	2	39	0	483.250584582507	483.35058323358	0.0999986510723829	stim11_sf2_pattern1_cont2_shape2.png	2	1	2	2	1	4	0	0	0	0	0	0	0	0	0	0	0	0	1	22
473.2158203125	0.099994252435863	969146	376	8	stim08_sf2_pattern1_cont1_shape1.png	2	40	0	483.750576664897	483.850570917333	0.099994252435863	stim08_sf2_pattern1_cont1_shape1.png	2	1	1	1	1	2	0	0	0	0	0	0	0	0	0	0	0	0	1	22
473.7158203125	0.0999927861848846	970170	377	10	stim10_sf2_pattern1_cont2_shape1.png	2	41	0	484.250564348651	484.350557134836	0.0999927861848846	stim10_sf2_pattern1_cont2_shape1.png	2	1	2	1	1	4	0	0	0	0	0	0	0	0	0	0	0	0	1	22
474.2158203125	0.099996598350117	971194	378	6	stim06_sf1_pattern2_cont2_shape1.png	2	42	0	484.750551445904	484.850548044255	0.099996598350117	stim06_sf1_pattern2_cont2_shape1.png	1	2	2	1	1	3	0	0	0	0	0	0	0	0	0	0	0	0	1	22
474.7158203125	0.0999983578221872	972218	379	2	stim02_sf1_pattern1_cont2_shape1.png	2	43	0	485.250538249908	485.35053660773	0.0999983578221872	stim02_sf1_pattern1_cont2_shape1.png	1	1	2	1	1	3	0	0	0	0	0	0	0	0	0	0	0	0	1	22
475.2158203125	0.0999954254075419	973242	380	1	stim01_sf1_pattern1_cont1_shape2.png	2	44	0	485.750527693104	485.850523118512	0.0999954254075419	stim01_sf1_pattern1_cont1_shape2.png	1	1	1	2	1	1	0	0	0	0	0	0	0	0	0	0	0	0	1	22
475.7158203125	0.0999731388292275	974266	381	7	stim07_sf1_pattern2_cont2_shape2.png	2	45	0	486.250515963329	486.350489102158	0.0999731388292275	stim07_sf1_pattern2_cont2_shape2.png	1	2	2	2	1	3	0	0	0	0	0	0	0	0	0	0	0	0	1	22
476.2158203125	0.0999608225538395	975290	382	0	stim00_sf1_pattern1_cont1_shape1.png	2	46	0	486.750510684942	486.850471507496	0.0999608225538395	stim00_sf1_pattern1_cont1_shape1.png	1	1	1	1	1	1	0	0	0	0	0	0	0	0	0	0	0	0	1	22
476.7158203125	0.0999948389071506	976314	383	4	stim04_sf1_pattern2_cont1_shape1.png	2	47	0	487.250492797029	487.350487635937	0.0999948389071506	stim04_sf1_pattern2_cont1_shape1.png	1	2	1	1	1	1	0	0	0	0	0	0	0	0	0	0	0	0	1	22
477.2158203125	0.0999968916003127	977338	384	13	stim13_sf2_pattern2_cont1_shape2.png	2	48	0	487.750484879449	487.850481771049	0.0999968916003127	stim13_sf2_pattern2_cont1_shape2.png	2	2	1	2	1	2	0	0	0	0	0	0	0	0	0	0	0	0	1	22
477.7158203125	0.0999883875192609	978362	385	14	stim14_sf2_pattern2_cont2_shape1.png	2	49	0	488.250473736174	488.350462123693	0.0999883875192609	stim14_sf2_pattern2_cont2_shape1.png	2	2	2	1	1	4	0	0	0	0	0	0	0	0	0	0	0	0	1	22
478.2158203125	0.0999927861848846	979386	386	3	stim03_sf1_pattern1_cont2_shape2.png	2	50	0	488.750466698315	488.8504594845	0.0999927861848846	stim03_sf1_pattern1_cont2_shape2.png	1	1	2	2	1	3	0	0	0	0	0	0	0	0	0	0	0	0	1	22
478.7158203125	0.0999948388780467	980410	387	5	stim05_sf1_pattern2_cont1_shape2.png	2	51	0	489.250421831937	489.350416670815	0.0999948388780467	stim05_sf1_pattern2_cont1_shape2.png	1	2	1	2	1	1	0	0	0	0	0	0	0	0	0	0	0	0	1	22
479.2158203125	0.100019764649915	981434	388	3	stim03_sf1_pattern1_cont2_shape2.png	2	52	0	489.750410102162	489.850429866812	0.100019764649915	stim03_sf1_pattern1_cont2_shape2.png	1	1	2	2	1	3	0	0	0	0	0	0	0	0	0	0	0	0	1	22
479.7158203125	0.10001653895597	982458	389	2	stim02_sf1_pattern1_cont2_shape1.png	2	53	0	490.250398665637	490.350415204593	0.10001653895597	stim02_sf1_pattern1_cont2_shape1.png	1	1	2	1	1	3	0	0	0	0	0	0	0	0	0	0	0	0	1	22
480.2158203125	0.0999998240731657	983482	390	15	stim15_sf2_pattern2_cont2_shape2.png	2	54	0	490.75040746294	490.850407287013	0.0999998240731657	stim15_sf2_pattern2_cont2_shape2.png	2	2	2	2	1	4	0	0	0	0	0	0	0	0	0	0	0	0	1	22
480.7158203125	0.0999901469913311	984506	391	14	stim14_sf2_pattern2_cont2_shape1.png	2	55	0	491.250404530496	491.350394677487	0.0999901469913311	stim14_sf2_pattern2_cont2_shape1.png	2	2	2	1	1	4	0	0	0	0	0	0	0	0	0	0	0	0	1	22
481.2158203125	0.0999960118788294	985530	392	1	stim01_sf1_pattern1_cont1_shape2.png	2	56	0	491.750391627749	491.850387639628	0.0999960118788294	stim01_sf1_pattern1_cont1_shape2.png	1	1	1	2	1	1	0	0	0	0	0	0	0	0	0	0	0	0	1	22
481.7158203125	0.0999640482477844	986554	393	0	stim00_sf1_pattern1_cont1_shape1.png	2	57	0	492.250418312993	492.350382361241	0.0999640482477844	stim00_sf1_pattern1_cont1_shape1.png	1	1	1	1	1	1	0	0	0	0	0	0	0	0	0	0	0	0	1	22
482.2158203125	0.100014486262808	987578	394	12	stim12_sf2_pattern2_cont1_shape1.png	2	58	0	492.750365822256	492.850380308519	0.100014486262808	stim12_sf2_pattern2_cont1_shape1.png	2	2	1	1	1	2	0	0	0	0	0	0	0	0	0	0	0	0	1	22
482.7158203125	0.0999936659354717	988602	395	11	stim11_sf2_pattern1_cont2_shape2.png	2	59	0	493.250365529006	493.350359194941	0.0999936659354717	stim11_sf2_pattern1_cont2_shape2.png	2	1	2	2	1	4	0	0	0	0	0	0	0	0	0	0	0	0	1	22
483.2158203125	0.0999713793571573	989626	396	7	stim07_sf1_pattern2_cont2_shape2.png	2	60	0	493.750352039788	493.850323419145	0.0999713793571573	stim07_sf1_pattern2_cont2_shape2.png	1	2	2	2	1	3	0	0	0	0	0	0	0	0	0	0	0	0	1	22
483.7158203125	0.0999948389071506	990650	397	4	stim04_sf1_pattern2_cont1_shape1.png	2	61	0	494.250330926181	494.350325765088	0.0999948389071506	stim04_sf1_pattern2_cont1_shape1.png	1	2	1	1	1	1	0	0	0	0	0	0	0	0	0	0	0	0	1	22
484.2158203125	0.0999916132132057	991674	398	10	stim10_sf2_pattern1_cont2_shape1.png	2	62	0	494.75032271535	494.850314328563	0.0999916132132057	stim10_sf2_pattern1_cont2_shape1.png	2	1	2	1	1	4	0	0	0	0	0	0	0	0	0	0	0	0	1	22
484.7158203125	0.100009794376092	992698	399	9	stim09_sf2_pattern1_cont1_shape2.png	2	63	0	495.250304827438	495.350314621814	0.100009794376092	stim09_sf2_pattern1_cont1_shape2.png	2	1	1	2	1	2	0	0	0	0	0	0	0	0	0	0	0	0	1	22
485.2158203125	0.0999916132132057	993722	400	13	stim13_sf2_pattern2_cont1_shape2.png	2	64	0	495.750297789578	495.850289402792	0.0999916132132057	stim13_sf2_pattern2_cont1_shape2.png	2	2	1	2	1	2	0	0	0	0	0	0	0	0	0	0	0	0	1	22
485.7158203125	0.0999916132132057	994746	401	6	stim06_sf1_pattern2_cont2_shape1.png	2	65	0	496.250285766582	496.350277379795	0.0999916132132057	stim06_sf1_pattern2_cont2_shape1.png	1	2	2	1	1	3	0	0	0	0	0	0	0	0	0	0	0	0	1	22
486.2158203125	0.099965514469659	995770	402	8	stim08_sf2_pattern1_cont1_shape1.png	2	66	0	496.750272277335	496.850237791805	0.099965514469659	stim08_sf2_pattern1_cont1_shape1.png	2	1	1	1	1	2	0	0	0	0	0	0	0	0	0	0	0	0	1	22
486.7158203125	0.0999948389071506	996794	403	5	stim05_sf1_pattern2_cont1_shape2.png	2	67	0	497.250261427282	497.350256266189	0.0999948389071506	stim05_sf1_pattern2_cont1_shape2.png	1	2	1	2	1	1	0	0	0	0	0	0	0	0	0	0	0	0	1	22
487.2158203125	0.0999942524067592	997818	404	2	stim02_sf1_pattern1_cont2_shape1.png	2	68	0	497.750247938064	497.85024219047	0.0999942524067592	stim02_sf1_pattern1_cont2_shape1.png	1	1	2	1	1	3	0	0	0	0	0	0	0	0	0	0	0	0	1	22
487.71533203125	0.0999945456569549	998841	405	4	stim04_sf1_pattern2_cont1_shape1.png	2	69	0	498.250236501539	498.350231047196	0.0999945456569549	stim04_sf1_pattern2_cont1_shape1.png	1	2	1	1	1	1	0	0	0	0	0	0	0	0	0	0	0	0	1	22
488.21533203125	0.100003342988202	999865	406	5	stim05_sf1_pattern2_cont1_shape2.png	2	70	0	498.750225651485	498.850228994474	0.100003342988202	stim05_sf1_pattern2_cont1_shape2.png	1	2	1	2	1	1	0	0	0	0	0	0	0	0	0	0	0	0	1	22
488.71533203125	0.0999983578221872	1000889	407	11	stim11_sf2_pattern1_cont2_shape2.png	2	71	0	499.250212748739	499.350211106561	0.0999983578221872	stim11_sf2_pattern1_cont2_shape2.png	2	1	2	2	1	4	0	0	0	0	0	0	0	0	0	0	0	0	1	22
489.21533203125	0.0999974780716002	1001913	408	14	stim14_sf2_pattern2_cont2_shape1.png	2	72	0	499.750200432492	499.850197910564	0.0999974780716002	stim14_sf2_pattern2_cont2_shape1.png	2	2	2	1	1	4	0	0	0	0	0	0	0	0	0	0	0	0	1	22
489.71533203125	0.0999954254075419	1002937	409	10	stim10_sf2_pattern1_cont2_shape1.png	2	73	0	500.25019046216	500.350185887568	0.0999954254075419	stim10_sf2_pattern1_cont2_shape1.png	2	1	2	1	1	4	0	0	0	0	0	0	0	0	0	0	0	0	1	22
490.21533203125	0.0999983578512911	1003961	410	15	stim15_sf2_pattern2_cont2_shape2.png	2	74	0	500.75017492022	500.850173278071	0.0999983578512911	stim15_sf2_pattern2_cont2_shape2.png	2	2	2	2	1	4	0	0	0	0	0	0	0	0	0	0	0	0	1	22
490.71533203125	0.0999954253784381	1004985	411	7	stim07_sf1_pattern2_cont2_shape2.png	2	75	0	501.250166709389	501.350162134768	0.0999954253784381	stim07_sf1_pattern2_cont2_shape2.png	1	2	2	2	1	3	0	0	0	0	0	0	0	0	0	0	0	0	1	22
491.21533203125	0.0999942524067592	1006009	412	6	stim06_sf1_pattern2_cont2_shape1.png	2	76	0	501.750152633671	501.850146886078	0.0999942524067592	stim06_sf1_pattern2_cont2_shape1.png	1	2	2	1	1	3	0	0	0	0	0	0	0	0	0	0	0	0	1	22
491.7236328125	0.0999951321573462	1007050	413	1	stim01_sf1_pattern1_cont1_shape2.png	2	77	0	502.258476666262	502.358471798419	0.0999951321573462	stim01_sf1_pattern1_cont1_shape2.png	1	1	1	2	1	1	0	0	0	0	0	0	0	0	0	0	0	0	1	22
492.2236328125	0.0999998240731657	1008074	414	0	stim00_sf1_pattern1_cont1_shape1.png	2	78	0	502.758464349987	502.85846417406	0.0999998240731657	stim00_sf1_pattern1_cont1_shape1.png	1	1	1	1	1	1	0	0	0	0	0	0	0	0	0	0	0	0	1	22
492.7236328125	0.0999860415759031	1009098	415	13	stim13_sf2_pattern2_cont1_shape2.png	2	79	0	503.258460831072	503.358446872648	0.0999860415759031	stim13_sf2_pattern2_cont1_shape2.png	2	2	1	2	1	2	0	0	0	0	0	0	0	0	0	0	0	0	1	22
493.2236328125	0.0999954253784381	1010122	416	9	stim09_sf2_pattern1_cont1_shape2.png	2	80	0	503.758442063438	503.858437488816	0.0999954253784381	stim09_sf2_pattern1_cont1_shape2.png	2	1	1	2	1	2	0	0	0	0	0	0	0	0	0	0	0	0	1	22
493.7236328125	0.0999954254075419	1011146	417	8	stim08_sf2_pattern1_cont1_shape1.png	2	81	0	504.258429747162	504.35842517257	0.0999954254075419	stim08_sf2_pattern1_cont1_shape1.png	2	1	1	1	1	2	0	0	0	0	0	0	0	0	0	0	0	0	1	22
494.2236328125	0.09999953082297	1012170	418	3	stim03_sf1_pattern1_cont2_shape2.png	2	82	0	504.758416844415	504.858416375238	0.09999953082297	stim03_sf1_pattern1_cont2_shape2.png	1	1	2	2	1	3	0	0	0	0	0	0	0	0	0	0	0	0	1	22
494.7236328125	0.0999957186577376	1013194	419	12	stim12_sf2_pattern2_cont1_shape1.png	2	83	0	505.25840511464	505.358400833298	0.0999957186577376	stim12_sf2_pattern2_cont1_shape1.png	2	2	1	1	1	2	0	0	0	0	0	0	0	0	0	0	0	0	1	22
495.2236328125	0.0999954253784381	1014218	420	15	stim15_sf2_pattern2_cont2_shape2.png	2	84	0	505.758394557866	505.858389983245	0.0999954253784381	stim15_sf2_pattern2_cont2_shape2.png	2	2	2	2	1	4	0	0	0	0	0	0	0	0	0	0	0	0	1	22
495.7236328125	0.0999963051290251	1015242	421	14	stim14_sf2_pattern2_cont2_shape1.png	2	85	0	506.258382828091	506.35837913322	0.0999963051290251	stim14_sf2_pattern2_cont2_shape1.png	2	2	2	1	1	4	0	0	0	0	0	0	0	0	0	0	0	0	1	22
496.2236328125	0.0999986510723829	1016266	422	6	stim06_sf1_pattern2_cont2_shape1.png	2	86	0	506.758370511816	506.858369162888	0.0999986510723829	stim06_sf1_pattern2_cont2_shape1.png	1	2	2	1	1	3	0	0	0	0	0	0	0	0	0	0	0	0	1	22
496.7236328125	0.0999945456569549	1017290	423	8	stim08_sf2_pattern1_cont1_shape1.png	2	87	0	507.258361714485	507.358356260142	0.0999945456569549	stim08_sf2_pattern1_cont1_shape1.png	2	1	1	1	1	2	0	0	0	0	0	0	0	0	0	0	0	0	1	22
497.2236328125	0.0999892672698479	1018314	424	3	stim03_sf1_pattern1_cont2_shape2.png	2	88	0	507.758354383375	507.858343650645	0.0999892672698479	stim03_sf1_pattern1_cont2_shape2.png	1	1	2	2	1	3	0	0	0	0	0	0	0	0	0	0	0	0	1	22
497.7236328125	0.100009794376092	1019338	425	9	stim09_sf2_pattern1_cont1_shape2.png	2	89	0	508.258321246773	508.358331041149	0.100009794376092	stim09_sf2_pattern1_cont1_shape2.png	2	1	1	2	1	2	0	0	0	0	0	0	0	0	0	0	0	0	1	22
498.2236328125	0.0999869212973863	1020362	426	13	stim13_sf2_pattern2_cont1_shape2.png	2	90	0	508.758329457632	508.85831637893	0.0999869212973863	stim13_sf2_pattern2_cont1_shape2.png	2	2	1	2	1	2	0	0	0	0	0	0	0	0	0	0	0	0	1	22
498.7236328125	0.100011260568863	1021386	427	2	stim02_sf1_pattern1_cont2_shape1.png	2	91	0	509.25829632103	509.358307581599	0.100011260568863	stim02_sf1_pattern1_cont2_shape1.png	1	1	2	1	1	3	0	0	0	0	0	0	0	0	0	0	0	0	1	22
499.2236328125	0.0999693266639952	1022410	428	5	stim05_sf1_pattern2_cont1_shape2.png	2	92	0	509.758302772389	509.858272099053	0.0999693266639952	stim05_sf1_pattern2_cont1_shape2.png	1	2	1	2	1	1	0	0	0	0	0	0	0	0	0	0	0	0	1	22
499.7236328125	0.0999790037167259	1023434	429	1	stim01_sf1_pattern1_cont1_shape2.png	2	93	0	510.258289283141	510.358268286858	0.0999790037167259	stim01_sf1_pattern1_cont1_shape2.png	1	1	1	2	1	1	0	0	0	0	0	0	0	0	0	0	0	0	1	22
500.2236328125	0.0999646347190719	1024458	430	4	stim04_sf1_pattern2_cont1_shape1.png	2	94	0	510.758284591255	510.858249225974	0.0999646347190719	stim04_sf1_pattern2_cont1_shape1.png	1	2	1	1	1	1	0	0	0	0	0	0	0	0	0	0	0	0	1	22
500.7236328125	0.099985161825316	1025482	431	11	stim11_sf2_pattern1_cont2_shape2.png	2	95	0	511.258274327702	511.358259489527	0.099985161825316	stim11_sf2_pattern1_cont2_shape2.png	2	1	2	2	1	4	0	0	0	0	0	0	0	0	0	0	0	0	1	22
501.2236328125	0.0999716725782491	1026506	432	0	stim00_sf1_pattern1_cont1_shape1.png	2	96	0	511.758251454652	511.85822312723	0.0999716725782491	stim00_sf1_pattern1_cont1_shape1.png	1	1	1	1	1	1	0	0	0	0	0	0	0	0	0	0	0	0	1	22
501.7236328125	0.099993372685276	1027530	433	12	stim12_sf2_pattern2_cont1_shape1.png	2	97	0	512.25824910868	512.358242481365	0.099993372685276	stim12_sf2_pattern2_cont1_shape1.png	2	2	1	1	1	2	0	0	0	0	0	0	0	0	0	0	0	0	1	22
502.2236328125	0.100003636238398	1028554	434	10	stim10_sf2_pattern1_cont2_shape1.png	2	98	0	512.75824207082	512.858245707059	0.100003636238398	stim10_sf2_pattern1_cont2_shape1.png	2	1	2	1	1	4	0	0	0	0	0	0	0	0	0	0	0	0	1	22
502.7236328125	0.099997478100704	1029578	435	7	stim07_sf1_pattern2_cont2_shape2.png	2	99	0	513.258204535552	513.358202013653	0.099997478100704	stim07_sf1_pattern2_cont2_shape2.png	1	2	2	2	1	3	0	0	0	0	0	0	0	0	0	0	0	0	1	22
503.2236328125	0.0999743118009064	1030602	436	13	stim13_sf2_pattern2_cont1_shape2.png	2	100	0	513.758236499183	513.858210810984	0.0999743118009064	stim13_sf2_pattern2_cont1_shape2.png	2	2	1	2	1	2	0	0	0	0	0	0	0	0	0	0	0	0	1	22
503.7236328125	0.0999936659063678	1031626	437	8	stim08_sf2_pattern1_cont1_shape1.png	2	101	0	514.258205122052	514.358198787959	0.0999936659063678	stim08_sf2_pattern1_cont1_shape1.png	2	1	1	1	1	2	0	0	0	0	0	0	0	0	0	0	0	0	1	22
504.2236328125	0.0999728455790319	1032650	438	7	stim07_sf1_pattern2_cont2_shape2.png	2	102	0	514.758183715196	514.858156560775	0.0999728455790319	stim07_sf1_pattern2_cont2_shape2.png	1	2	2	2	1	3	0	0	0	0	0	0	0	0	0	0	0	0	1	22
504.7236328125	0.0999898537411354	1033674	439	2	stim02_sf1_pattern1_cont2_shape1.png	2	103	0	515.258183421975	515.358173275716	0.0999898537411354	stim02_sf1_pattern1_cont2_shape1.png	1	1	2	1	1	3	0	0	0	0	0	0	0	0	0	0	0	0	1	22
505.2236328125	0.099997478100704	1034698	440	14	stim14_sf2_pattern2_cont2_shape1.png	2	104	0	515.758160548896	515.858158026997	0.099997478100704	stim14_sf2_pattern2_cont2_shape1.png	2	2	2	1	1	4	0	0	0	0	0	0	0	0	0	0	0	0	1	22
505.7236328125	0.0999965983792208	1035722	441	6	stim06_sf1_pattern2_cont2_shape1.png	2	105	0	516.258150578593	516.358147176972	0.0999965983792208	stim06_sf1_pattern2_cont2_shape1.png	1	2	2	1	1	3	0	0	0	0	0	0	0	0	0	0	0	0	1	22
506.22314453125	0.100022990343859	1036745	442	0	stim00_sf1_pattern1_cont1_shape1.png	2	106	1	516.758112456853	516.858135447197	0.100022990343859	stim00_sf1_pattern1_cont1_shape1.png	1	1	1	1	1	1	0	0	0	0	0	0	0	0	0	0	0	0	1	22
506.72314453125	0.0999963051290251	1037769	443	0	stim00_sf1_pattern1_cont1_shape1.png	2	107	1	517.258126825822	517.358123130951	0.0999963051290251	stim00_sf1_pattern1_cont1_shape1.png	1	1	1	1	1	1	0	0	0	0	0	0	0	0	0	0	0	0	1	22
507.22314453125	0.0999719658284448	1038793	444	8	stim08_sf2_pattern1_cont1_shape1.png	2	108	2	517.758113629825	517.858085595653	0.0999719658284448	stim08_sf2_pattern1_cont1_shape1.png	2	1	1	1	1	2	0	0	0	0	0	0	0	0	0	0	0	0	1	22
507.72314453125	0.0999980645719916	1039817	445	2	stim02_sf1_pattern1_cont2_shape1.png	2	109	2	518.258103952772	518.358102017344	0.0999980645719916	stim02_sf1_pattern1_cont2_shape1.png	1	1	2	1	1	3	0	0	0	0	0	0	0	0	0	0	0	0	1	22
508.22314453125	0.0999977713217959	1040841	446	10	stim10_sf2_pattern1_cont2_shape1.png	2	110	0	518.758089583804	518.858087355125	0.0999977713217959	stim10_sf2_pattern1_cont2_shape1.png	2	1	2	1	1	4	0	0	0	0	0	0	0	0	0	0	0	0	1	22
508.72314453125	0.0999989443225786	1041865	447	5	stim05_sf1_pattern2_cont1_shape2.png	2	111	0	519.258079320251	519.358078264573	0.0999989443225786	stim05_sf1_pattern2_cont1_shape2.png	1	2	1	2	1	1	0	0	0	0	0	0	0	0	0	0	0	0	1	22
509.22314453125	0.0999948388780467	1042889	448	4	stim04_sf1_pattern2_cont1_shape1.png	2	112	0	519.758067883726	519.858062722604	0.0999948388780467	stim04_sf1_pattern2_cont1_shape1.png	1	2	1	1	1	1	0	0	0	0	0	0	0	0	0	0	0	0	1	22
