onset	duration	onsetsample	eventnumber	stimnumber	stimname	blocknumber	trialnumber	istarget	time_stimon	time_stimoff	stimdur	stimfilename	spatial_freq	pattern	contrast	shape	is_fast_stream	category	ppt_1_response	ppt_1_keypressed	ppt_1_rt	ppt_1_correct	ppt_2_response	ppt_2_keypressed	ppt_2_rt	ppt_2_correct	button1	button2	button3	button4	task_part_number	subjectnr
44.69873046875	0.0999898243362622	91543	0	1	stim01_sf1_pattern1_cont1_shape2.png	0	0	0	303.373359760734	303.473349585071	0.0999898243362622	stim01_sf1_pattern1_cont1_shape2.png	1	1	1	2	1	1	0	0	0	0	0	0	0	0	0	0	0	0	1	14
45.20703125	0.0999555144617261	92584	1	12	stim12_sf2_pattern2_cont1_shape1.png	0	1	0	303.881690755425	303.981646269886	0.0999555144617261	stim12_sf2_pattern2_cont1_shape1.png	2	2	1	1	1	4	0	0	0	0	0	0	0	0	0	0	0	0	1	14
45.71533203125	0.0994394001108958	93625	2	7	stim07_sf1_pattern2_cont2_shape2.png	0	2	0	304.398803025251	304.498242425362	0.0994394001108958	stim07_sf1_pattern2_cont2_shape2.png	1	2	2	2	1	1	0	0	0	0	0	0	0	0	0	0	0	0	1	14
46.2236328125	0.100004193428504	94666	3	0	stim00_sf1_pattern1_cont1_shape1.png	0	3	0	304.898299373889	304.998303567318	0.100004193428504	stim00_sf1_pattern1_cont1_shape1.png	1	1	1	1	1	3	0	0	0	0	0	0	0	0	0	0	0	0	1	14
46.7236328125	0.0999977419996867	95690	4	3	stim03_sf1_pattern1_cont2_shape2.png	0	4	0	305.398319461294	305.498317203293	0.0999977419996867	stim03_sf1_pattern1_cont2_shape2.png	1	1	2	2	1	1	0	0	0	0	0	0	0	0	0	0	0	0	1	14
47.2236328125	0.0999528752408878	96714	5	15	stim15_sf2_pattern2_cont2_shape2.png	0	5	0	305.898315502463	305.998268377703	0.0999528752408878	stim15_sf2_pattern2_cont2_shape2.png	2	2	2	2	1	2	0	0	0	0	0	0	0	0	0	0	0	0	1	14
47.7236328125	0.100006246156227	97738	6	14	stim14_sf2_pattern2_cont2_shape1.png	0	6	0	306.39829248259	306.498298728746	0.100006246156227	stim14_sf2_pattern2_cont2_shape1.png	2	2	2	1	1	4	0	0	0	0	0	0	0	0	0	0	0	0	1	14
48.2236328125	0.099930588485222	98762	7	6	stim06_sf1_pattern2_cont2_shape1.png	0	7	0	306.898341601426	306.998272189911	0.099930588485222	stim06_sf1_pattern2_cont2_shape1.png	1	2	2	1	1	3	0	0	0	0	0	0	0	0	0	0	0	0	1	14
48.7236328125	0.0999936365451504	99786	8	11	stim11_sf2_pattern1_cont2_shape2.png	0	8	0	307.398285444666	307.498279081211	0.0999936365451504	stim11_sf2_pattern1_cont2_shape2.png	2	1	2	2	1	2	0	0	0	0	0	0	0	0	0	0	0	0	1	14
49.2236328125	0.0999581536834739	100810	9	13	stim13_sf2_pattern2_cont1_shape2.png	0	9	0	307.898260078819	307.998218232502	0.0999581536834739	stim13_sf2_pattern2_cont1_shape2.png	2	2	1	2	1	2	0	0	0	0	0	0	0	0	0	0	0	0	1	14
49.7236328125	0.0999824931659532	101834	10	8	stim08_sf2_pattern1_cont1_shape1.png	0	10	0	308.398197470629	308.498179963795	0.0999824931659532	stim08_sf2_pattern1_cont1_shape1.png	2	1	1	1	1	4	0	0	0	0	0	0	0	0	0	0	0	0	1	14
50.2236328125	0.100001847455133	102858	11	2	stim02_sf1_pattern1_cont2_shape1.png	0	11	0	308.898179729198	308.998181576653	0.100001847455133	stim02_sf1_pattern1_cont2_shape1.png	1	1	2	1	1	3	0	0	0	0	0	0	0	0	0	0	0	0	1	14
50.7236328125	0.0999813201788129	103882	12	5	stim05_sf1_pattern2_cont1_shape2.png	0	12	0	309.398227088555	309.498208408734	0.0999813201788129	stim05_sf1_pattern2_cont1_shape2.png	1	2	1	2	1	1	0	0	0	0	0	0	0	0	0	0	0	0	1	14
51.22314453125	0.10000214070169	104905	13	9	stim09_sf2_pattern1_cont1_shape2.png	0	13	0	309.898202895694	309.998205036396	0.10000214070169	stim09_sf2_pattern1_cont1_shape2.png	2	1	1	2	1	2	0	0	0	0	0	0	0	0	0	0	0	0	1	14
51.72314453125	0.100006832650251	105929	14	10	stim10_sf2_pattern1_cont2_shape1.png	0	14	0	310.3981910192	310.49819785185	0.100006832650251	stim10_sf2_pattern1_cont2_shape1.png	2	1	2	1	1	4	0	0	0	0	0	0	0	0	0	0	0	0	1	14
52.22314453125	0.0999147531574636	106953	15	4	stim04_sf1_pattern2_cont1_shape1.png	0	15	0	310.898248935441	310.998163688599	0.0999147531574636	stim04_sf1_pattern2_cont1_shape1.png	1	2	1	1	1	3	0	0	0	0	0	0	0	0	0	0	0	0	1	14
52.72314453125	0.0999531684874455	107977	16	9	stim09_sf2_pattern1_cont1_shape2.png	0	16	0	311.398225329074	311.498178497562	0.0999531684874455	stim09_sf2_pattern1_cont1_shape2.png	2	1	1	2	1	2	0	0	0	0	0	0	0	0	0	0	0	0	1	14
53.22314453125	0.100006539403694	109001	17	15	stim15_sf2_pattern2_cont2_shape2.png	0	17	0	311.898196737512	311.998203276916	0.100006539403694	stim15_sf2_pattern2_cont2_shape2.png	2	2	2	2	1	2	0	0	0	0	0	0	0	0	0	0	0	0	1	14
53.72314453125	0.099998914986827	110025	18	13	stim13_sf2_pattern2_cont1_shape2.png	0	18	0	312.398209200501	312.498208115488	0.099998914986827	stim13_sf2_pattern2_cont1_shape2.png	2	2	1	2	1	2	0	0	0	0	0	0	0	0	0	0	0	0	1	14
54.22314453125	0.0999948095313812	111049	19	5	stim05_sf1_pattern2_cont1_shape2.png	0	19	0	312.898193218551	312.998188028082	0.0999948095313812	stim05_sf1_pattern2_cont1_shape2.png	1	2	1	2	1	1	0	0	0	0	0	0	0	0	0	0	0	0	1	14
54.72314453125	0.0999968622591041	112073	20	6	stim06_sf1_pattern2_cont2_shape1.png	0	20	0	313.398186034005	313.498182896264	0.0999968622591041	stim06_sf1_pattern2_cont2_shape1.png	1	2	2	1	1	3	0	0	0	0	0	0	0	0	0	0	0	0	1	14
55.22314453125	0.0999390926417618	113097	21	10	stim10_sf2_pattern1_cont2_shape1.png	0	21	0	313.898189113095	313.998128205737	0.0999390926417618	stim10_sf2_pattern1_cont2_shape1.png	2	1	2	1	1	4	0	0	0	0	0	0	0	0	0	0	0	0	1	14
55.72314453125	0.0999983284937116	114121	22	4	stim04_sf1_pattern2_cont1_shape1.png	0	22	0	314.398110669579	314.498108998073	0.0999983284937116	stim04_sf1_pattern2_cont1_shape1.png	1	2	1	1	1	3	0	0	0	0	0	0	0	0	0	0	0	0	1	14
56.22314453125	0.0999971555065713	115145	23	14	stim14_sf2_pattern2_cont2_shape1.png	0	23	0	314.898099672824	314.998096828331	0.0999971555065713	stim14_sf2_pattern2_cont2_shape1.png	2	2	2	1	1	4	0	0	0	0	0	0	0	0	0	0	0	0	1	14
56.72314453125	0.0999986217402693	116169	24	11	stim11_sf2_pattern1_cont2_shape2.png	0	24	0	315.398150844389	315.49814946613	0.0999986217402693	stim11_sf2_pattern1_cont2_shape2.png	2	1	2	2	1	2	0	0	0	0	0	0	0	0	0	0	0	0	1	14
57.22314453125	0.0999754552440208	117193	25	0	stim00_sf1_pattern1_cont1_shape1.png	0	25	0	315.898147472051	315.998122927295	0.0999754552440208	stim00_sf1_pattern1_cont1_shape1.png	1	1	1	1	1	3	0	0	0	0	0	0	0	0	0	0	0	0	1	14
57.72314453125	0.100020908495935	118217	26	1	stim01_sf1_pattern1_cont1_shape2.png	0	26	0	316.398114188541	316.498135097037	0.100020908495935	stim01_sf1_pattern1_cont1_shape2.png	1	1	1	2	1	1	0	0	0	0	0	0	0	0	0	0	0	0	1	14
58.22314453125	0.0999951027788484	119241	27	2	stim02_sf1_pattern1_cont2_shape1.png	0	27	0	316.898126065035	316.998121167814	0.0999951027788484	stim02_sf1_pattern1_cont2_shape1.png	1	1	2	1	1	3	0	0	0	0	0	0	0	0	0	0	0	0	1	14
58.72314453125	0.0999663645925466	120265	28	8	stim08_sf2_pattern1_cont1_shape1.png	0	28	1	317.398074893471	317.498041258063	0.0999663645925466	stim08_sf2_pattern1_cont1_shape1.png	2	1	1	1	1	4	0	0	0	0	0	0	0	0	0	0	0	0	1	14
59.22314453125	0.0999769214777189	121289	29	8	stim08_sf2_pattern1_cont1_shape1.png	0	29	1	317.898112575684	317.998089497161	0.0999769214777189	stim08_sf2_pattern1_cont1_shape1.png	2	1	1	1	1	4	0	0	0	0	0	0	0	0	0	0	0	0	1	14
59.72314453125	0.100000381221435	122313	30	11	stim11_sf2_pattern1_cont2_shape2.png	0	30	2	318.398118000749	318.49811838197	0.100000381221435	stim11_sf2_pattern1_cont2_shape2.png	2	1	2	2	1	2	0	0	0	0	0	0	0	0	0	0	0	0	1	14
60.22314453125	0.0999467170586286	123337	31	9	stim09_sf2_pattern1_cont1_shape2.png	0	31	2	318.898112282436	318.998058999495	0.0999467170586286	stim09_sf2_pattern1_cont1_shape2.png	2	1	1	2	1	2	0	0	0	0	0	0	0	0	0	0	0	0	1	14
60.72314453125	0.0999813201797224	124361	32	8	stim08_sf2_pattern1_cont1_shape1.png	0	32	0	319.398101285682	319.498082605862	0.0999813201797224	stim08_sf2_pattern1_cont1_shape1.png	2	1	1	1	1	4	0	0	0	0	0	0	0	0	0	0	0	0	1	14
61.22314453125	0.0999637253717083	125385	33	3	stim03_sf1_pattern1_cont2_shape2.png	0	33	0	319.89808999568	319.998053721052	0.0999637253717083	stim03_sf1_pattern1_cont2_shape2.png	1	1	2	2	1	1	0	0	0	0	0	0	0	0	0	0	0	0	1	14
61.72314453125	0.09996108615087	126409	34	7	stim07_sf1_pattern2_cont2_shape2.png	0	34	0	320.398073720484	320.498034806635	0.09996108615087	stim07_sf1_pattern2_cont2_shape2.png	1	2	2	2	1	1	0	0	0	0	0	0	0	0	0	0	0	0	1	14
62.22314453125	0.0999821999193955	127433	35	12	stim12_sf2_pattern2_cont1_shape1.png	0	35	0	320.898080318537	320.998062518456	0.0999821999193955	stim12_sf2_pattern2_cont1_shape1.png	2	2	1	1	1	4	0	0	0	0	0	0	0	0	0	0	0	0	1	14
62.72314453125	0.099997448753129	128457	36	2	stim02_sf1_pattern1_cont2_shape1.png	0	36	0	321.398069615028	321.498067063781	0.099997448753129	stim02_sf1_pattern1_cont2_shape1.png	1	1	2	1	1	3	0	0	0	0	0	0	0	0	0	0	0	0	1	14
63.22314453125	0.0999663645925466	129481	37	0	stim00_sf1_pattern1_cont1_shape1.png	0	37	0	321.898038090999	321.998004455591	0.0999663645925466	stim00_sf1_pattern1_cont1_shape1.png	1	1	1	1	1	3	0	0	0	0	0	0	0	0	0	0	0	0	1	14
63.72314453125	0.100007125896809	130505	38	14	stim14_sf2_pattern2_cont2_shape1.png	0	38	0	322.398044102558	322.498051228455	0.100007125896809	stim14_sf2_pattern2_cont2_shape1.png	2	2	2	1	1	4	0	0	0	0	0	0	0	0	0	0	0	0	1	14
64.22314453125	0.0999830796599781	131529	39	11	stim11_sf2_pattern1_cont2_shape2.png	0	39	0	322.898034572037	322.998017651697	0.0999830796599781	stim11_sf2_pattern1_cont2_shape2.png	2	1	2	2	1	2	0	0	0	0	0	0	0	0	0	0	0	0	1	14
64.72314453125	0.0999898243371717	132553	40	8	stim08_sf2_pattern1_cont1_shape1.png	0	40	0	323.398004514241	323.497994338578	0.0999898243371717	stim08_sf2_pattern1_cont1_shape1.png	2	1	1	1	1	4	0	0	0	0	0	0	0	0	0	0	0	0	1	14
65.22314453125	0.100001847455133	133577	41	7	stim07_sf1_pattern2_cont2_shape2.png	0	41	0	323.897981201121	323.997983048576	0.100001847455133	stim07_sf1_pattern2_cont2_shape2.png	1	2	2	2	1	1	0	0	0	0	0	0	0	0	0	0	0	0	1	14
65.72314453125	0.100024427457356	134601	42	4	stim04_sf1_pattern2_cont1_shape1.png	0	42	0	324.397969617873	324.49799404533	0.100024427457356	stim04_sf1_pattern2_cont1_shape1.png	1	2	1	1	1	3	0	0	0	0	0	0	0	0	0	0	0	0	1	14
66.22314453125	0.0999643118657332	135625	43	12	stim12_sf2_pattern2_cont1_shape1.png	0	43	0	324.897987066057	324.997951377923	0.0999643118657332	stim12_sf2_pattern2_cont1_shape1.png	2	2	1	1	1	4	0	0	0	0	0	0	0	0	0	0	0	0	1	14
66.72314453125	0.100022081483075	136649	44	6	stim06_sf1_pattern2_cont2_shape1.png	0	44	0	325.397981054498	325.498003135981	0.100022081483075	stim06_sf1_pattern2_cont2_shape1.png	1	2	2	1	1	3	0	0	0	0	0	0	0	0	0	0	0	0	1	14
67.22314453125	0.0999405588754598	137673	45	5	stim05_sf1_pattern2_cont1_shape2.png	0	45	0	325.897962726573	325.997903285449	0.0999405588754598	stim05_sf1_pattern2_cont1_shape2.png	1	2	1	2	1	1	0	0	0	0	0	0	0	0	0	0	0	0	1	14
67.72314453125	0.0999977419996867	138697	46	13	stim13_sf2_pattern2_cont1_shape2.png	0	46	0	326.397966685405	326.497964427404	0.0999977419996867	stim13_sf2_pattern2_cont1_shape2.png	2	2	1	2	1	2	0	0	0	0	0	0	0	0	0	0	0	0	1	14
68.22265625	0.0999769214777189	139720	47	9	stim09_sf2_pattern1_cont1_shape2.png	0	47	0	326.897982667355	326.997959588833	0.0999769214777189	stim09_sf2_pattern1_cont1_shape2.png	2	1	1	2	1	2	0	0	0	0	0	0	0	0	0	0	0	0	1	14
68.72265625	0.0999995014808519	140744	48	3	stim03_sf1_pattern1_cont2_shape2.png	0	48	0	327.397957008261	327.497956509742	0.0999995014808519	stim03_sf1_pattern1_cont2_shape2.png	1	1	2	2	1	1	0	0	0	0	0	0	0	0	0	0	0	0	1	14
69.22265625	0.100473974787747	141768	49	1	stim01_sf1_pattern1_cont1_shape2.png	0	49	0	327.897959500859	327.998433475646	0.100473974787747	stim01_sf1_pattern1_cont1_shape2.png	1	1	1	2	1	1	0	0	0	0	0	0	0	0	0	0	0	0	1	14
69.72265625	0.100002727194806	142792	50	3	stim03_sf1_pattern1_cont2_shape2.png	0	50	1	328.397939706701	328.497942433895	0.100002727194806	stim03_sf1_pattern1_cont2_shape2.png	1	1	2	2	1	1	0	0	0	0	0	0	0	0	0	0	0	0	1	14
70.22265625	0.0999566874488664	143816	51	3	stim03_sf1_pattern1_cont2_shape2.png	0	51	1	328.897947770987	328.997904458436	0.0999566874488664	stim03_sf1_pattern1_cont2_shape2.png	1	1	2	2	1	1	0	0	0	0	0	0	0	0	0	0	0	0	1	14
70.72265625	0.0999924635571006	144840	52	9	stim09_sf2_pattern1_cont1_shape2.png	0	52	2	329.397942052675	329.497934516232	0.0999924635571006	stim09_sf2_pattern1_cont1_shape2.png	2	1	1	2	1	2	0	0	0	0	0	0	0	0	0	0	0	0	1	14
71.22265625	0.0999558077082838	145864	53	4	stim04_sf1_pattern2_cont1_shape1.png	0	53	2	329.89793017618	329.997885983888	0.0999558077082838	stim04_sf1_pattern2_cont1_shape1.png	1	2	1	1	1	3	0	0	0	0	0	0	0	0	0	0	0	0	1	14
71.72265625	0.0999707632945501	146888	54	10	stim10_sf2_pattern1_cont2_shape1.png	0	54	0	330.397925630855	330.497896394149	0.0999707632945501	stim10_sf2_pattern1_cont2_shape1.png	2	1	2	1	1	4	0	0	0	0	0	0	0	0	0	0	0	0	1	14
72.22265625	0.099954634722053	147912	55	15	stim15_sf2_pattern2_cont2_shape2.png	0	55	0	330.897914927346	330.997869562068	0.099954634722053	stim15_sf2_pattern2_cont2_shape2.png	2	2	2	2	1	2	0	0	0	0	0	0	0	0	0	0	0	0	1	14
72.72265625	0.0999921703105429	148936	56	0	stim00_sf1_pattern1_cont1_shape1.png	0	56	0	331.397910968515	331.497903138826	0.0999921703105429	stim00_sf1_pattern1_cont1_shape1.png	1	1	1	1	1	3	0	0	0	0	0	0	0	0	0	0	0	0	1	14
73.22265625	0.0999710565420173	149960	57	14	stim14_sf2_pattern2_cont2_shape1.png	0	57	0	331.89789909202	331.997870148562	0.0999710565420173	stim14_sf2_pattern2_cont2_shape1.png	2	2	2	1	1	4	0	0	0	0	0	0	0	0	0	0	0	0	1	14
73.72265625	0.0999995014799424	150984	58	12	stim12_sf2_pattern2_cont1_shape1.png	0	58	0	332.397871673445	332.497871174925	0.0999995014799424	stim12_sf2_pattern2_cont1_shape1.png	2	2	1	1	1	4	0	0	0	0	0	0	0	0	0	0	0	0	1	14
74.22265625	0.0998974515978261	152008	59	7	stim07_sf1_pattern2_cont2_shape2.png	0	59	0	332.897878271498	332.997775723095	0.0998974515978261	stim07_sf1_pattern2_cont2_shape2.png	1	2	2	2	1	1	0	0	0	0	0	0	0	0	0	0	0	0	1	14
74.72265625	0.0999936365451504	153032	60	10	stim10_sf2_pattern1_cont2_shape1.png	0	60	0	333.39786111656	333.497854753105	0.0999936365451504	stim10_sf2_pattern1_cont2_shape1.png	2	1	2	1	1	4	0	0	0	0	0	0	0	0	0	0	0	0	1	14
75.22265625	0.0999871851154239	154056	61	8	stim08_sf2_pattern1_cont1_shape1.png	0	61	0	333.897849826559	333.997837011674	0.0999871851154239	stim08_sf2_pattern1_cont1_shape1.png	2	1	1	1	1	4	0	0	0	0	0	0	0	0	0	0	0	0	1	14
75.72265625	0.0999939297917081	155080	62	11	stim11_sf2_pattern1_cont2_shape2.png	0	62	0	334.39784469474	334.497838624532	0.0999939297917081	stim11_sf2_pattern1_cont2_shape2.png	2	1	2	2	1	2	0	0	0	0	0	0	0	0	0	0	0	0	1	14
76.22265625	0.0999792674519995	156104	63	2	stim02_sf1_pattern1_cont2_shape1.png	0	63	0	334.897836337207	334.997815604659	0.0999792674519995	stim02_sf1_pattern1_cont2_shape1.png	1	1	2	1	1	3	0	0	0	0	0	0	0	0	0	0	0	0	1	14
76.72265625	0.100039969537647	157128	64	6	stim06_sf1_pattern2_cont2_shape1.png	0	64	0	335.397784285901	335.497824255439	0.100039969537647	stim06_sf1_pattern2_cont2_shape1.png	1	2	2	1	1	3	0	0	0	0	0	0	0	0	0	0	0	0	1	14
77.22265625	0.10000947187109	158152	65	4	stim04_sf1_pattern2_cont1_shape1.png	0	65	0	335.897802320579	335.99781179245	0.10000947187109	stim04_sf1_pattern2_cont1_shape1.png	1	2	1	1	1	3	0	0	0	0	0	0	0	0	0	0	0	0	1	14
77.72265625	0.100021788236518	159176	66	13	stim13_sf2_pattern2_cont1_shape2.png	0	66	0	336.397788391357	336.497810179593	0.100021788236518	stim13_sf2_pattern2_cont1_shape2.png	2	2	1	2	1	2	0	0	0	0	0	0	0	0	0	0	0	0	1	14
78.22265625	0.0999739890103228	160200	67	9	stim09_sf2_pattern1_cont1_shape2.png	0	67	0	336.8978049598	336.99777894881	0.0999739890103228	stim09_sf2_pattern1_cont1_shape2.png	2	1	1	2	1	2	0	0	0	0	0	0	0	0	0	0	0	0	1	14
78.72265625	0.100006246156227	161224	68	1	stim01_sf1_pattern1_cont1_shape2.png	0	68	0	337.397780473693	337.49778671985	0.100006246156227	stim01_sf1_pattern1_cont1_shape2.png	1	1	1	2	1	1	0	0	0	0	0	0	0	0	0	0	0	0	1	14
79.22265625	0.0999643118657332	162248	69	3	stim03_sf1_pattern1_cont2_shape2.png	0	69	0	337.897741325247	337.997705637113	0.0999643118657332	stim03_sf1_pattern1_cont2_shape2.png	1	1	2	2	1	1	0	0	0	0	0	0	0	0	0	0	0	0	1	14
79.72265625	0.0999739890094133	163272	70	10	stim10_sf2_pattern1_cont2_shape1.png	0	70	1	338.397731794726	338.497705783736	0.0999739890094133	stim10_sf2_pattern1_cont2_shape1.png	2	1	2	1	1	4	0	0	0	0	0	0	0	0	0	0	0	0	1	14
80.22265625	0.0999754552431114	164296	71	10	stim10_sf2_pattern1_cont2_shape1.png	0	71	1	338.897710241087	338.99768569633	0.0999754552431114	stim10_sf2_pattern1_cont2_shape1.png	2	1	2	1	1	4	0	0	0	0	0	0	0	0	0	0	0	0	1	14
80.72265625	0.100001260961108	165320	72	6	stim06_sf1_pattern2_cont2_shape1.png	0	72	2	339.397732087973	339.497733348934	0.100001260961108	stim06_sf1_pattern2_cont2_shape1.png	1	2	2	1	1	3	0	0	0	0	0	0	0	0	0	0	0	0	1	14
81.22265625	0.0999757484905786	166344	73	5	stim05_sf1_pattern2_cont1_shape2.png	0	73	2	339.897743964468	339.997719712958	0.0999757484905786	stim05_sf1_pattern2_cont1_shape2.png	1	2	1	2	1	1	0	0	0	0	0	0	0	0	0	0	0	0	1	14
81.72265625	0.100018562521655	167368	74	15	stim15_sf2_pattern2_cont2_shape2.png	0	74	0	340.397714786413	340.497733348934	0.100018562521655	stim15_sf2_pattern2_cont2_shape2.png	2	2	2	2	1	2	0	0	0	0	0	0	0	0	0	0	0	0	1	14
82.22265625	0.0999678308271541	168392	75	5	stim05_sf1_pattern2_cont1_shape2.png	0	75	0	340.897735167064	340.997702997891	0.0999678308271541	stim05_sf1_pattern2_cont1_shape2.png	1	2	1	2	1	1	0	0	0	0	0	0	0	0	0	0	0	0	1	14
82.72265625	0.0999901175828199	169416	76	0	stim00_sf1_pattern1_cont1_shape1.png	0	76	0	341.397734140701	341.497724258284	0.0999901175828199	stim00_sf1_pattern1_cont1_shape1.png	1	1	1	1	1	3	0	0	0	0	0	0	0	0	0	0	0	0	1	14
83.22265625	0.100000381221435	170440	77	7	stim07_sf1_pattern2_cont2_shape2.png	0	77	0	341.897685608356	341.997685989578	0.100000381221435	stim07_sf1_pattern2_cont2_shape2.png	1	2	2	2	1	1	0	0	0	0	0	0	0	0	0	0	0	0	1	14
83.72265625	0.100014457067118	171464	78	2	stim02_sf1_pattern1_cont2_shape1.png	0	78	0	342.397678717057	342.497693174124	0.100014457067118	stim02_sf1_pattern1_cont2_shape1.png	1	1	2	1	1	3	0	0	0	0	0	0	0	0	0	0	0	0	1	14
84.22265625	0.0999634321251506	172488	79	1	stim01_sf1_pattern1_cont1_shape2.png	0	79	0	342.897693232773	342.997656664898	0.0999634321251506	stim01_sf1_pattern1_cont1_shape2.png	1	1	1	2	1	1	0	0	0	0	0	0	0	0	0	0	0	0	1	14
84.72265625	0.0999933432976832	173512	80	5	stim05_sf1_pattern2_cont1_shape2.png	0	80	0	343.397667280432	343.49766062373	0.0999933432976832	stim05_sf1_pattern2_cont1_shape2.png	1	2	1	2	1	1	0	0	0	0	0	0	0	0	0	0	0	0	1	14
85.22216796875	0.0999517022537475	174535	81	9	stim09_sf2_pattern1_cont1_shape2.png	0	81	0	343.897692646279	343.997644348533	0.0999517022537475	stim09_sf2_pattern1_cont1_shape2.png	2	1	1	2	1	2	0	0	0	0	0	0	0	0	0	0	0	0	1	14
85.72216796875	0.10001181784537	175559	82	4	stim04_sf1_pattern2_cont1_shape1.png	0	82	0	344.397625639388	344.497637457233	0.10001181784537	stim04_sf1_pattern2_cont1_shape1.png	1	2	1	1	1	3	0	0	0	0	0	0	0	0	0	0	0	0	1	14
86.22216796875	0.0999695903074098	176583	83	12	stim12_sf2_pattern2_cont1_shape1.png	0	83	0	344.897665667575	344.997635257882	0.0999695903074098	stim12_sf2_pattern2_cont1_shape1.png	2	2	1	1	1	4	0	0	0	0	0	0	0	0	0	0	0	0	1	14
86.72216796875	0.0999511157597226	177607	84	11	stim11_sf2_pattern1_cont2_shape2.png	0	84	0	345.397689567189	345.497640682948	0.0999511157597226	stim11_sf2_pattern1_cont2_shape2.png	2	1	2	2	1	2	0	0	0	0	0	0	0	0	0	0	0	0	1	14
87.22216796875	0.100020908495935	178631	85	6	stim06_sf1_pattern2_cont2_shape1.png	0	85	0	345.897608484451	345.997629392947	0.100020908495935	stim06_sf1_pattern2_cont2_shape1.png	1	2	2	1	1	3	0	0	0	0	0	0	0	0	0	0	0	0	1	14
87.72216796875	0.100024134210798	179655	86	3	stim03_sf1_pattern1_cont2_shape2.png	0	86	0	346.397619774452	346.497643908663	0.100024134210798	stim03_sf1_pattern1_cont2_shape2.png	1	1	2	2	1	1	0	0	0	0	0	0	0	0	0	0	0	0	1	14
88.22216796875	0.0999789742054418	180679	87	15	stim15_sf2_pattern2_cont2_shape2.png	0	87	0	346.897640448351	346.997619422556	0.0999789742054418	stim15_sf2_pattern2_cont2_shape2.png	2	2	2	2	1	2	0	0	0	0	0	0	0	0	0	0	0	0	1	14
88.72216796875	0.0999792674519995	181703	88	8	stim08_sf2_pattern1_cont1_shape1.png	0	88	0	347.397622120427	347.497601387879	0.0999792674519995	stim08_sf2_pattern1_cont1_shape1.png	2	1	1	1	1	4	0	0	0	0	0	0	0	0	0	0	0	0	1	14
89.22216796875	0.0999813201788129	182727	89	10	stim10_sf2_pattern1_cont2_shape1.png	0	89	0	347.897586197695	347.997567517874	0.0999813201788129	stim10_sf2_pattern1_cont2_shape1.png	2	1	2	1	1	4	0	0	0	0	0	0	0	0	0	0	0	0	1	14
89.72216796875	0.100022374729633	183751	90	13	stim13_sf2_pattern2_cont1_shape2.png	0	90	0	348.397601299905	348.497623674634	0.100022374729633	stim13_sf2_pattern2_cont1_shape2.png	2	2	1	2	1	2	0	0	0	0	0	0	0	0	0	0	0	0	1	14
90.22216796875	0.100009178624532	184775	91	14	stim14_sf2_pattern2_cont2_shape1.png	0	91	0	348.897569482628	348.997578661252	0.100009178624532	stim14_sf2_pattern2_cont2_shape1.png	2	2	2	1	1	4	0	0	0	0	0	0	0	0	0	0	0	0	1	14
90.72216796875	0.1000226679771	185799	92	12	stim12_sf2_pattern2_cont1_shape1.png	0	92	0	349.397596314709	349.497618982686	0.1000226679771	stim12_sf2_pattern2_cont1_shape1.png	2	2	1	1	1	4	0	0	0	0	0	0	0	0	0	0	0	0	1	14
91.22216796875	0.0999895310897045	186823	93	10	stim10_sf2_pattern1_cont2_shape1.png	0	93	0	349.89758209224	349.997571623329	0.0999895310897045	stim10_sf2_pattern1_cont2_shape1.png	2	1	2	1	1	4	0	0	0	0	0	0	0	0	0	0	0	0	1	14
91.72216796875	0.0999646051122909	187847	94	0	stim00_sf1_pattern1_cont1_shape1.png	0	94	0	350.397612150035	350.497576755148	0.0999646051122909	stim00_sf1_pattern1_cont1_shape1.png	1	1	1	1	1	3	0	0	0	0	0	0	0	0	0	0	0	0	1	14
92.22216796875	0.100009765118557	188871	95	9	stim09_sf2_pattern1_cont1_shape2.png	0	95	0	350.897500862879	350.997510627997	0.100009765118557	stim09_sf2_pattern1_cont1_shape2.png	2	1	1	2	1	2	0	0	0	0	0	0	0	0	0	0	0	0	1	14
92.72216796875	0.100061376552731	189895	96	3	stim03_sf1_pattern1_cont2_shape2.png	0	96	0	351.39752681522	351.497588191773	0.100061376552731	stim03_sf1_pattern1_cont2_shape2.png	1	1	2	2	1	1	0	0	0	0	0	0	0	0	0	0	0	0	1	14
93.22216796875	0.0999731092697402	190919	97	11	stim11_sf2_pattern1_cont2_shape2.png	0	97	0	351.897553940547	351.997527049817	0.0999731092697402	stim11_sf2_pattern1_cont2_shape2.png	2	1	2	2	1	2	0	0	0	0	0	0	0	0	0	0	0	0	1	14
93.72216796875	0.0999986217402693	191943	98	5	stim05_sf1_pattern2_cont1_shape2.png	0	98	0	352.397532973402	352.497531595142	0.0999986217402693	stim05_sf1_pattern2_cont1_shape2.png	1	2	1	2	1	1	0	0	0	0	0	0	0	0	0	0	0	0	1	14
94.22216796875	0.0999563942023087	192967	99	14	stim14_sf2_pattern2_cont2_shape1.png	0	99	0	352.897545143144	352.997501537347	0.0999563942023087	stim14_sf2_pattern2_cont2_shape1.png	2	2	2	1	1	4	0	0	0	0	0	0	0	0	0	0	0	0	1	14
94.72216796875	0.100020028755353	193991	100	8	stim08_sf2_pattern1_cont1_shape1.png	0	100	0	353.397491039112	353.497511067867	0.100020028755353	stim08_sf2_pattern1_cont1_shape1.png	2	1	1	1	1	4	0	0	0	0	0	0	0	0	0	0	0	0	1	14
95.22216796875	0.100038503303949	195015	101	13	stim13_sf2_pattern2_cont1_shape2.png	0	101	0	353.897481801837	353.997520305141	0.100038503303949	stim13_sf2_pattern2_cont1_shape2.png	2	2	1	2	1	2	0	0	0	0	0	0	0	0	0	0	0	0	1	14
95.72216796875	0.0999895310897045	196039	102	4	stim04_sf1_pattern2_cont1_shape1.png	0	102	0	354.397506874438	354.497496405527	0.0999895310897045	stim04_sf1_pattern2_cont1_shape1.png	1	2	1	1	1	3	0	0	0	0	0	0	0	0	0	0	0	0	1	14
96.22216796875	0.099998914986827	197063	103	2	stim02_sf1_pattern1_cont2_shape1.png	0	103	0	354.897482681577	354.997481596564	0.099998914986827	stim02_sf1_pattern1_cont2_shape1.png	1	1	2	1	1	3	0	0	0	0	0	0	0	0	0	0	0	0	1	14
96.72216796875	0.100001260961108	198087	104	7	stim07_sf1_pattern2_cont2_shape2.png	0	104	0	355.397474617291	355.497475878252	0.100001260961108	stim07_sf1_pattern2_cont2_shape2.png	1	2	2	2	1	1	0	0	0	0	0	0	0	0	0	0	0	0	1	14
97.22216796875	0.09996108615087	199111	105	15	stim15_sf2_pattern2_cont2_shape2.png	0	105	0	355.897498223658	355.997459309809	0.09996108615087	stim15_sf2_pattern2_cont2_shape2.png	2	2	2	2	1	2	0	0	0	0	0	0	0	0	0	0	0	0	1	14
97.72216796875	0.0999945162848235	200135	106	6	stim06_sf1_pattern2_cont2_shape1.png	0	106	0	356.397486933656	356.497481449941	0.0999945162848235	stim06_sf1_pattern2_cont2_shape1.png	1	2	2	1	1	3	0	0	0	0	0	0	0	0	0	0	0	0	1	14
98.22216796875	0.10000096771455	201159	107	1	stim01_sf1_pattern1_cont1_shape2.png	0	107	0	356.897482974824	356.997483942539	0.10000096771455	stim01_sf1_pattern1_cont1_shape2.png	1	1	1	2	1	1	0	0	0	0	0	0	0	0	0	0	0	0	1	14
98.72216796875	0.0999616726448949	202183	108	5	stim05_sf1_pattern2_cont1_shape2.png	0	108	0	357.397499543268	357.497461215913	0.0999616726448949	stim05_sf1_pattern2_cont1_shape2.png	1	2	1	2	1	1	0	0	0	0	0	0	0	0	0	0	0	0	1	14
99.22216796875	0.100018562521655	203207	109	7	stim07_sf1_pattern2_cont2_shape2.png	0	109	0	357.897460688068	357.99747925059	0.100018562521655	stim07_sf1_pattern2_cont2_shape2.png	1	2	2	2	1	1	0	0	0	0	0	0	0	0	0	0	0	0	1	14
99.72216796875	0.100036743823694	204231	110	0	stim00_sf1_pattern1_cont1_shape1.png	0	110	0	358.397411862477	358.497448606301	0.100036743823694	stim00_sf1_pattern1_cont1_shape1.png	1	1	1	1	1	3	0	0	0	0	0	0	0	0	0	0	0	0	1	14
100.22216796875	0.100017976028539	205255	111	1	stim01_sf1_pattern1_cont1_shape2.png	0	111	0	358.897442506767	358.997460482796	0.100017976028539	stim01_sf1_pattern1_cont1_shape2.png	1	1	1	2	1	1	0	0	0	0	0	0	0	0	0	0	0	0	1	14
100.72216796875	0.0999909973234026	206279	112	9	stim09_sf2_pattern1_cont1_shape2.png	0	112	0	359.397438841183	359.497429838506	0.0999909973234026	stim09_sf2_pattern1_cont1_shape2.png	2	1	1	2	1	2	0	0	0	0	0	0	0	0	0	0	0	0	1	14
101.22216796875	0.0999962757659887	207303	113	11	stim11_sf2_pattern1_cont2_shape2.png	0	113	0	359.897431949883	359.997428225649	0.0999962757659887	stim11_sf2_pattern1_cont2_shape2.png	2	1	2	2	1	2	0	0	0	0	0	0	0	0	0	0	0	0	1	14
101.72216796875	0.0999722295291576	208327	114	4	stim04_sf1_pattern2_cont1_shape1.png	0	114	0	360.397420366635	360.497392596164	0.0999722295291576	stim04_sf1_pattern2_cont1_shape1.png	1	2	1	1	1	3	0	0	0	0	0	0	0	0	0	0	0	0	1	14
102.22216796875	0.0999980352471539	209351	115	13	stim13_sf2_pattern2_cont1_shape2.png	0	115	0	360.897432536376	360.997430571623	0.0999980352471539	stim13_sf2_pattern2_cont1_shape2.png	2	2	1	2	1	2	0	0	0	0	0	0	0	0	0	0	0	0	1	14
102.7216796875	0.0999971555056618	210374	116	12	stim12_sf2_pattern2_cont1_shape1.png	0	116	0	361.39742359235	361.497420747855	0.0999971555056618	stim12_sf2_pattern2_cont1_shape1.png	2	2	1	1	1	4	0	0	0	0	0	0	0	0	0	0	0	0	1	14
103.2216796875	0.0999965690125464	211398	117	6	stim06_sf1_pattern2_cont2_shape1.png	0	117	0	361.897416114556	361.997412683569	0.0999965690125464	stim06_sf1_pattern2_cont2_shape1.png	1	2	2	1	1	3	0	0	0	0	0	0	0	0	0	0	0	0	1	14
103.7216796875	0.100056391357612	212422	118	8	stim08_sf2_pattern1_cont1_shape1.png	0	118	0	362.397364356498	362.497420747855	0.100056391357612	stim08_sf2_pattern1_cont1_shape1.png	2	1	1	1	1	4	0	0	0	0	0	0	0	0	0	0	0	0	1	14
104.2216796875	0.100024134210798	213446	119	15	stim15_sf2_pattern2_cont2_shape2.png	0	119	0	362.897376819486	362.997400953697	0.100024134210798	stim15_sf2_pattern2_cont2_shape2.png	2	2	2	2	1	2	0	0	0	0	0	0	0	0	0	0	0	0	1	14
104.7216796875	0.0999555144617261	214470	120	2	stim02_sf1_pattern1_cont2_shape1.png	0	120	0	363.397412155725	363.497367670187	0.0999555144617261	stim02_sf1_pattern1_cont2_shape1.png	1	1	2	1	1	3	0	0	0	0	0	0	0	0	0	0	0	0	1	14
105.2216796875	0.0999901175828199	215494	121	10	stim10_sf2_pattern1_cont2_shape1.png	0	121	0	363.897394121047	363.99738423863	0.0999901175828199	stim10_sf2_pattern1_cont2_shape1.png	2	1	2	1	1	4	0	0	0	0	0	0	0	0	0	0	0	0	1	14
105.7216796875	0.100005366415644	216518	122	3	stim03_sf1_pattern1_cont2_shape2.png	0	122	0	364.397370807927	364.497376174343	0.100005366415644	stim03_sf1_pattern1_cont2_shape2.png	1	1	2	2	1	1	0	0	0	0	0	0	0	0	0	0	0	0	1	14
106.2216796875	0.100013284079978	217542	123	14	stim14_sf2_pattern2_cont2_shape1.png	0	123	0	364.897344269092	364.997357553172	0.100013284079978	stim14_sf2_pattern2_cont2_shape1.png	2	2	2	1	1	4	0	0	0	0	0	0	0	0	0	0	0	0	1	14
106.7216796875	0.100014163819651	218566	124	13	stim13_sf2_pattern2_cont1_shape2.png	0	124	0	365.397360837536	365.497375001356	0.100014163819651	stim13_sf2_pattern2_cont1_shape2.png	2	2	1	2	1	2	0	0	0	0	0	0	0	0	0	0	0	0	1	14
107.2216796875	0.100020615249377	219590	125	8	stim08_sf2_pattern1_cont1_shape1.png	0	125	0	365.897329020259	365.997349635509	0.100020615249377	stim08_sf2_pattern1_cont1_shape1.png	2	1	1	1	1	4	0	0	0	0	0	0	0	0	0	0	0	0	1	14
107.7216796875	0.0999921703105429	220614	126	10	stim10_sf2_pattern1_cont2_shape1.png	0	126	0	366.397312745063	366.497304915373	0.0999921703105429	stim10_sf2_pattern1_cont2_shape1.png	2	1	2	1	1	4	0	0	0	0	0	0	0	0	0	0	0	0	1	14
108.2216796875	0.100040262784205	221638	127	3	stim03_sf1_pattern1_cont2_shape2.png	0	127	0	366.897294123892	366.997334386676	0.100040262784205	stim03_sf1_pattern1_cont2_shape2.png	1	1	2	2	1	1	0	0	0	0	0	0	0	0	0	0	0	0	1	14
108.7216796875	0.0999775079708343	222662	128	5	stim05_sf1_pattern2_cont1_shape2.png	0	128	0	367.397327700649	367.49730520862	0.0999775079708343	stim05_sf1_pattern2_cont1_shape2.png	1	2	1	2	1	1	0	0	0	0	0	0	0	0	0	0	0	0	1	14
109.2216796875	0.0999772147242766	223686	129	15	stim15_sf2_pattern2_cont2_shape2.png	0	129	0	367.897310838958	367.997288053682	0.0999772147242766	stim15_sf2_pattern2_cont2_shape2.png	2	2	2	2	1	2	0	0	0	0	0	0	0	0	0	0	0	0	1	14
109.7216796875	0.0999819066737473	224710	130	9	stim09_sf2_pattern1_cont1_shape2.png	0	130	0	368.397296029995	368.497277936669	0.0999819066737473	stim09_sf2_pattern1_cont1_shape2.png	2	1	1	2	1	2	0	0	0	0	0	0	0	0	0	0	0	0	1	14
110.2216796875	0.099957567189449	225734	131	14	stim14_sf2_pattern2_cont2_shape1.png	0	131	0	368.897308786231	368.997266353421	0.099957567189449	stim14_sf2_pattern2_cont2_shape1.png	2	2	2	1	1	4	0	0	0	0	0	0	0	0	0	0	0	0	1	14
110.7216796875	0.099957567189449	226758	132	0	stim00_sf1_pattern1_cont1_shape1.png	0	132	0	369.397293684021	369.49725125121	0.099957567189449	stim00_sf1_pattern1_cont1_shape1.png	1	1	1	1	1	3	0	0	0	0	0	0	0	0	0	0	0	0	1	14
111.2216796875	0.0999930500511255	227782	133	12	stim12_sf2_pattern2_cont1_shape1.png	0	133	0	369.897251896354	369.997244946405	0.0999930500511255	stim12_sf2_pattern2_cont1_shape1.png	2	2	1	1	1	4	0	0	0	0	0	0	0	0	0	0	0	0	1	14
111.7216796875	0.0999434913437653	228806	134	11	stim11_sf2_pattern1_cont2_shape2.png	0	134	0	370.397294857008	370.497238348352	0.0999434913437653	stim11_sf2_pattern1_cont2_shape2.png	2	1	2	2	1	2	0	0	0	0	0	0	0	0	0	0	0	0	1	14
112.2216796875	0.0999889445956796	229830	135	1	stim01_sf1_pattern1_cont1_shape2.png	0	135	0	370.897270077655	370.997259022251	0.0999889445956796	stim01_sf1_pattern1_cont1_shape2.png	1	1	1	2	1	1	0	0	0	0	0	0	0	0	0	0	0	0	1	14
112.7216796875	0.0999877716094488	230854	136	2	stim02_sf1_pattern1_cont2_shape1.png	0	136	0	371.397234154922	371.497221926532	0.0999877716094488	stim02_sf1_pattern1_cont2_shape1.png	1	1	2	1	1	3	0	0	0	0	0	0	0	0	0	0	0	0	1	14
113.2216796875	0.100012404339395	231878	137	4	stim04_sf1_pattern2_cont1_shape1.png	0	137	0	371.897216706739	371.997229111078	0.100012404339395	stim04_sf1_pattern2_cont1_shape1.png	1	2	1	1	1	3	0	0	0	0	0	0	0	0	0	0	0	0	1	14
113.7216796875	0.0999927568045678	232902	138	6	stim06_sf1_pattern2_cont2_shape1.png	0	138	0	372.397217439856	372.49721019666	0.0999927568045678	stim06_sf1_pattern2_cont2_shape1.png	1	2	2	1	1	3	0	0	0	0	0	0	0	0	0	0	0	0	1	14
114.2216796875	0.100041142524788	233926	139	7	stim07_sf1_pattern2_cont2_shape2.png	0	139	0	372.897216706739	372.997257849263	0.100041142524788	stim07_sf1_pattern2_cont2_shape2.png	1	2	2	2	1	1	0	0	0	0	0	0	0	0	0	0	0	0	1	14
114.7216796875	0.099997448753129	234950	140	5	stim05_sf1_pattern2_cont1_shape2.png	0	140	0	373.397212747907	373.49721019666	0.099997448753129	stim05_sf1_pattern2_cont1_shape2.png	1	2	1	2	1	1	0	0	0	0	0	0	0	0	0	0	0	0	1	14
115.2216796875	0.099971349788575	235974	141	8	stim08_sf2_pattern1_cont1_shape1.png	0	141	0	373.897227850117	373.997199199905	0.099971349788575	stim08_sf2_pattern1_cont1_shape1.png	2	1	1	1	1	4	0	0	0	0	0	0	0	0	0	0	0	0	1	14
115.7216796875	0.0999379196546215	236998	142	2	stim02_sf1_pattern1_cont2_shape1.png	0	142	0	374.397235914404	374.497173834058	0.0999379196546215	stim02_sf1_pattern1_cont2_shape1.png	1	1	2	1	1	3	0	0	0	0	0	0	0	0	0	0	0	0	1	14
116.2216796875	0.100021788236518	238022	143	6	stim06_sf1_pattern2_cont2_shape1.png	0	143	0	374.8971882618	374.997210050036	0.100021788236518	stim06_sf1_pattern2_cont2_shape1.png	1	2	2	1	1	3	0	0	0	0	0	0	0	0	0	0	0	0	1	14
116.7216796875	0.100035864082201	239046	144	12	stim12_sf2_pattern2_cont1_shape1.png	0	144	0	375.397179904267	375.497215768349	0.100035864082201	stim12_sf2_pattern2_cont1_shape1.png	2	2	1	1	1	4	0	0	0	0	0	0	0	0	0	0	0	0	1	14
117.2216796875	0.0999449575774634	240070	145	9	stim09_sf2_pattern1_cont1_shape2.png	0	145	0	375.89722843661	375.997173394187	0.0999449575774634	stim09_sf2_pattern1_cont1_shape2.png	2	1	1	2	1	2	0	0	0	0	0	0	0	0	0	0	0	0	1	14
117.7216796875	0.100003900182855	241094	146	1	stim01_sf1_pattern1_cont1_shape2.png	0	146	0	376.397184596215	376.497188496398	0.100003900182855	stim01_sf1_pattern1_cont1_shape2.png	1	1	1	2	1	1	0	0	0	0	0	0	0	0	0	0	0	0	1	14
118.2216796875	0.100021201743402	242118	147	7	stim07_sf1_pattern2_cont2_shape2.png	0	147	0	376.897187088813	376.997208290556	0.100021201743402	stim07_sf1_pattern2_cont2_shape2.png	1	2	2	2	1	1	0	0	0	0	0	0	0	0	0	0	0	0	1	14
118.7216796875	0.100019442262237	243142	148	0	stim00_sf1_pattern1_cont1_shape1.png	0	148	0	377.397140609197	377.497160051459	0.100019442262237	stim00_sf1_pattern1_cont1_shape1.png	1	1	1	1	1	3	0	0	0	0	0	0	0	0	0	0	0	0	1	14
119.2216796875	0.100020615249377	244166	149	14	stim14_sf2_pattern2_cont2_shape1.png	0	149	0	377.897144568028	377.997165183278	0.100020615249377	stim14_sf2_pattern2_cont2_shape1.png	2	2	2	1	1	4	0	0	0	0	0	0	0	0	0	0	0	0	1	14
119.72119140625	0.100009765117647	245189	150	15	stim15_sf2_pattern2_cont2_shape2.png	0	150	0	378.39714031595	378.497150081068	0.100009765117647	stim15_sf2_pattern2_cont2_shape2.png	2	2	2	2	1	2	0	0	0	0	0	0	0	0	0	0	0	0	1	14
120.22119140625	0.0999511157606321	246213	151	11	stim11_sf2_pattern1_cont2_shape2.png	0	151	0	378.89718005089	378.99713116665	0.0999511157606321	stim11_sf2_pattern1_cont2_shape2.png	2	1	2	2	1	2	0	0	0	0	0	0	0	0	0	0	0	0	1	14
120.72119140625	0.0999992082333847	247237	152	4	stim04_sf1_pattern2_cont1_shape1.png	0	152	0	379.397141782184	379.497140990417	0.0999992082333847	stim04_sf1_pattern2_cont1_shape1.png	1	2	1	1	1	3	0	0	0	0	0	0	0	0	0	0	0	0	1	14
121.22119140625	0.100020615249377	248261	153	10	stim10_sf2_pattern1_cont2_shape1.png	0	153	0	379.897129612442	379.997150227691	0.100020615249377	stim10_sf2_pattern1_cont2_shape1.png	2	1	2	1	1	4	0	0	0	0	0	0	0	0	0	0	0	0	1	14
121.72119140625	0.100041142524788	249285	154	3	stim03_sf1_pattern1_cont2_shape2.png	0	154	0	380.397115976466	380.497157118991	0.100041142524788	stim03_sf1_pattern1_cont2_shape2.png	1	1	2	2	1	1	0	0	0	0	0	0	0	0	0	0	0	0	1	14
122.22119140625	0.100009471871999	250309	155	13	stim13_sf2_pattern2_cont1_shape2.png	0	155	0	380.897090610619	380.997100082491	0.100009471871999	stim13_sf2_pattern2_cont1_shape2.png	2	2	1	2	1	2	0	0	0	0	0	0	0	0	0	0	0	0	1	14
122.72119140625	0.100035864082201	251333	156	5	stim05_sf1_pattern2_cont1_shape2.png	0	156	0	381.397046770224	381.497082634306	0.100035864082201	stim05_sf1_pattern2_cont1_shape2.png	1	2	1	2	1	1	0	0	0	0	0	0	0	0	0	0	0	0	1	14
123.22119140625	0.0999933432976832	252357	157	4	stim04_sf1_pattern2_cont1_shape1.png	0	157	0	381.897105272958	381.997098616256	0.0999933432976832	stim04_sf1_pattern2_cont1_shape1.png	1	2	1	1	1	3	0	0	0	0	0	0	0	0	0	0	0	0	1	14
123.72119140625	0.0999939297917081	253381	158	9	stim09_sf2_pattern1_cont1_shape2.png	0	158	0	382.397098381659	382.497092311451	0.0999939297917081	stim09_sf2_pattern1_cont1_shape2.png	2	1	1	2	1	2	0	0	0	0	0	0	0	0	0	0	0	0	1	14
124.22119140625	0.0999830796599781	254405	159	14	stim14_sf2_pattern2_cont2_shape1.png	0	159	0	382.897084452437	382.997067532096	0.0999830796599781	stim14_sf2_pattern2_cont2_shape1.png	2	2	2	1	1	4	0	0	0	0	0	0	0	0	0	0	0	0	1	14
124.72119140625	0.100030585639615	255429	160	3	stim03_sf1_pattern1_cont2_shape2.png	0	160	0	383.397081959839	383.497112545479	0.100030585639615	stim03_sf1_pattern1_cont2_shape2.png	1	1	2	2	1	1	0	0	0	0	0	0	0	0	0	0	0	0	1	14
125.22119140625	0.099983666154003	256453	161	10	stim10_sf2_pattern1_cont2_shape1.png	0	161	0	383.897043104639	383.997026770793	0.099983666154003	stim10_sf2_pattern1_cont2_shape1.png	2	1	2	1	1	4	0	0	0	0	0	0	0	0	0	0	0	0	1	14
125.72119140625	0.0999959825185215	257477	162	15	stim15_sf2_pattern2_cont2_shape2.png	0	162	0	384.397018911779	384.497014894298	0.0999959825185215	stim15_sf2_pattern2_cont2_shape2.png	2	2	2	2	1	2	0	0	0	0	0	0	0	0	0	0	0	0	1	14
126.22119140625	0.100005073169086	258501	163	0	stim00_sf1_pattern1_cont1_shape1.png	0	163	0	384.897035186976	384.997040260145	0.100005073169086	stim00_sf1_pattern1_cont1_shape1.png	1	1	1	1	1	3	0	0	0	0	0	0	0	0	0	0	0	0	1	14
126.72119140625	0.0999552212151684	259525	164	13	stim13_sf2_pattern2_cont1_shape2.png	0	164	0	385.397049116198	385.497004337413	0.0999552212151684	stim13_sf2_pattern2_cont1_shape2.png	2	2	1	2	1	2	0	0	0	0	0	0	0	0	0	0	0	0	1	14
127.22119140625	0.0999666578400138	260549	165	7	stim07_sf1_pattern2_cont2_shape2.png	0	165	0	385.897028442299	385.996995100139	0.0999666578400138	stim07_sf1_pattern2_cont2_shape2.png	1	2	2	2	1	1	0	0	0	0	0	0	0	0	0	0	0	0	1	14
127.72119140625	0.100001847454223	261573	166	6	stim06_sf1_pattern2_cont2_shape1.png	0	166	0	386.397020084766	386.49702193222	0.100001847454223	stim06_sf1_pattern2_cont2_shape1.png	1	2	2	1	1	3	0	0	0	0	0	0	0	0	0	0	0	0	1	14
128.22119140625	0.100013577326536	262597	167	11	stim11_sf2_pattern1_cont2_shape2.png	0	167	0	386.897006742037	386.997020319363	0.100013577326536	stim11_sf2_pattern1_cont2_shape2.png	2	1	2	2	1	2	0	0	0	0	0	0	0	0	0	0	0	0	1	14
128.72119140625	0.100024134210798	263621	168	12	stim12_sf2_pattern2_cont1_shape1.png	0	168	0	387.39696671385	387.496990848061	0.100024134210798	stim12_sf2_pattern2_cont1_shape1.png	2	2	1	1	1	4	0	0	0	0	0	0	0	0	0	0	0	0	1	14
129.22119140625	0.0999974487522195	264645	169	2	stim02_sf1_pattern1_cont2_shape1.png	0	169	0	387.897018765156	387.997016213908	0.0999974487522195	stim02_sf1_pattern1_cont2_shape1.png	1	1	2	1	1	3	0	0	0	0	0	0	0	0	0	0	0	0	1	14
129.72119140625	0.0999481832914171	265669	170	1	stim01_sf1_pattern1_cont1_shape2.png	0	170	0	388.397030348404	388.496978531695	0.0999481832914171	stim01_sf1_pattern1_cont1_shape2.png	1	1	1	2	1	1	0	0	0	0	0	0	0	0	0	0	0	0	1	14
130.22119140625	0.100011524598813	266693	171	8	stim08_sf2_pattern1_cont1_shape1.png	0	171	0	388.896975364631	388.996986889229	0.100011524598813	stim08_sf2_pattern1_cont1_shape1.png	2	1	1	1	1	4	0	0	0	0	0	0	0	0	0	0	0	0	1	14
165.97021484375	0.100020615249377	339907	172	7	stim07_sf1_pattern2_cont2_shape2.png	1	0	0	424.646410058131	424.74643067338	0.100020615249377	stim07_sf1_pattern2_cont2_shape2.png	1	2	2	2	1	1	0	0	0	0	0	0	0	0	0	0	0	0	1	14
166.47021484375	0.100020908495935	340931	173	3	stim03_sf1_pattern1_cont2_shape2.png	1	1	0	425.146392903193	425.246413811689	0.100020908495935	stim03_sf1_pattern1_cont2_shape2.png	1	1	2	2	1	1	0	0	0	0	0	0	0	0	0	0	0	0	1	14
166.97021484375	0.0999458373171365	341955	174	10	stim10_sf2_pattern1_cont2_shape1.png	1	2	0	425.646412404105	425.746358241422	0.0999458373171365	stim10_sf2_pattern1_cont2_shape1.png	2	1	2	1	1	4	0	0	0	0	0	0	0	0	0	0	0	0	1	14
167.47021484375	0.0999965690125464	342979	175	9	stim09_sf2_pattern1_cont1_shape2.png	1	3	0	426.14636123254	426.246357801552	0.0999965690125464	stim09_sf2_pattern1_cont1_shape2.png	2	1	1	2	1	2	0	0	0	0	0	0	0	0	0	0	0	0	1	14
167.97021484375	0.0999478900457689	344003	176	0	stim00_sf1_pattern1_cont1_shape1.png	1	4	0	426.646397155271	426.746345045317	0.0999478900457689	stim00_sf1_pattern1_cont1_shape1.png	1	1	1	1	1	3	0	0	0	0	0	0	0	0	0	0	0	0	1	14
168.47021484375	0.0999399723823444	345027	177	5	stim05_sf1_pattern2_cont1_shape2.png	1	5	0	427.146408445273	427.246348417655	0.0999399723823444	stim05_sf1_pattern2_cont1_shape2.png	1	2	1	2	1	1	0	0	0	0	0	0	0	0	0	0	0	0	1	14
168.97021484375	0.0999775079717438	346051	178	6	stim06_sf1_pattern2_cont2_shape1.png	1	6	0	427.646386598387	427.746364106359	0.0999775079717438	stim06_sf1_pattern2_cont2_shape1.png	1	2	2	1	1	3	0	0	0	0	0	0	0	0	0	0	0	0	1	14
169.47021484375	0.100017682781072	347075	179	12	stim12_sf2_pattern2_cont1_shape1.png	1	7	0	428.146312553573	428.246330236354	0.100017682781072	stim12_sf2_pattern2_cont1_shape1.png	2	2	1	1	1	4	0	0	0	0	0	0	0	0	0	0	0	0	1	14
169.97021484375	0.0999912905699603	348099	180	8	stim08_sf2_pattern1_cont1_shape1.png	1	8	0	428.646330295003	428.746321585573	0.0999912905699603	stim08_sf2_pattern1_cont1_shape1.png	2	1	1	1	1	4	0	0	0	0	0	0	0	0	0	0	0	0	1	14
170.47021484375	0.100048473694187	349123	181	13	stim13_sf2_pattern2_cont1_shape2.png	1	9	0	429.146289680323	429.246338154017	0.100048473694187	stim13_sf2_pattern2_cont1_shape2.png	2	2	1	2	1	2	0	0	0	0	0	0	0	0	0	0	0	0	1	14
170.97021484375	0.0999956892719638	350147	182	2	stim02_sf1_pattern1_cont2_shape1.png	1	10	0	429.64629774461	429.746293433882	0.0999956892719638	stim02_sf1_pattern1_cont2_shape1.png	1	1	2	1	1	3	0	0	0	0	0	0	0	0	0	0	0	0	1	14
171.47021484375	0.099985132387701	351171	183	11	stim11_sf2_pattern1_cont2_shape2.png	1	11	0	430.146294958765	430.246280091153	0.099985132387701	stim11_sf2_pattern1_cont2_shape2.png	2	1	2	2	1	2	0	0	0	0	0	0	0	0	0	0	0	0	1	14
171.97021484375	0.0999909973234026	352195	184	1	stim01_sf1_pattern1_cont1_shape2.png	1	12	0	430.646283375517	430.74627437284	0.0999909973234026	stim01_sf1_pattern1_cont1_shape2.png	1	1	1	2	1	1	0	0	0	0	0	0	0	0	0	0	0	0	1	14
172.4697265625	0.100001554207665	353218	185	14	stim14_sf2_pattern2_cont2_shape1.png	1	13	0	431.146253317721	431.246254871929	0.100001554207665	stim14_sf2_pattern2_cont2_shape1.png	2	2	2	1	1	4	0	0	0	0	0	0	0	0	0	0	0	0	1	14
172.9697265625	0.100043488499068	354242	186	4	stim04_sf1_pattern2_cont1_shape1.png	1	14	0	431.646297158116	431.746340646615	0.100043488499068	stim04_sf1_pattern2_cont1_shape1.png	1	2	1	1	1	3	0	0	0	0	0	0	0	0	0	0	0	0	1	14
173.4697265625	0.100024720704823	355266	187	15	stim15_sf2_pattern2_cont2_shape2.png	1	15	0	432.146278830191	432.246303550896	0.100024720704823	stim15_sf2_pattern2_cont2_shape2.png	2	2	2	2	1	2	0	0	0	0	0	0	0	0	0	0	0	0	1	14
173.9697265625	0.0999707632954596	356290	188	0	stim00_sf1_pattern1_cont1_shape1.png	1	16	0	432.646259622526	432.746230385822	0.0999707632954596	stim00_sf1_pattern1_cont1_shape1.png	1	1	1	1	1	3	0	0	0	0	0	0	0	0	0	0	0	0	1	14
174.4697265625	0.0999731092697402	357314	189	15	stim15_sf2_pattern2_cont2_shape2.png	1	17	0	433.146308448117	433.246281557387	0.0999731092697402	stim15_sf2_pattern2_cont2_shape2.png	2	2	2	2	1	2	0	0	0	0	0	0	0	0	0	0	0	0	1	14
174.9697265625	0.100004193429413	358338	190	13	stim13_sf2_pattern2_cont1_shape2.png	1	18	0	433.64626754019	433.746271733619	0.100004193429413	stim13_sf2_pattern2_cont1_shape2.png	2	2	1	2	1	2	0	0	0	0	0	0	0	0	0	0	0	0	1	14
175.4697265625	0.10001064485823	359362	191	5	stim05_sf1_pattern2_cont1_shape2.png	1	19	0	434.146273844996	434.246284489855	0.10001064485823	stim05_sf1_pattern2_cont1_shape2.png	1	2	1	2	1	1	0	0	0	0	0	0	0	0	0	0	0	0	1	14
175.9697265625	0.0999995014808519	360386	192	9	stim09_sf2_pattern1_cont1_shape2.png	1	20	0	434.646273111879	434.74627261336	0.0999995014808519	stim09_sf2_pattern1_cont1_shape2.png	2	1	1	2	1	2	0	0	0	0	0	0	0	0	0	0	0	0	1	14
176.4697265625	0.0999874783619816	361410	193	7	stim07_sf1_pattern2_cont2_shape2.png	1	21	0	435.146265047592	435.246252525954	0.0999874783619816	stim07_sf1_pattern2_cont2_shape2.png	1	2	2	2	1	1	0	0	0	0	0	0	0	0	0	0	0	0	1	14
176.9697265625	0.099997448753129	362434	194	8	stim08_sf2_pattern1_cont1_shape1.png	1	22	0	435.646270765905	435.746268214658	0.099997448753129	stim08_sf2_pattern1_cont1_shape1.png	2	1	1	1	1	4	0	0	0	0	0	0	0	0	0	0	0	0	1	14
177.4697265625	0.100035277589086	363458	195	14	stim14_sf2_pattern2_cont2_shape1.png	1	23	0	436.146168862645	436.246204140234	0.100035277589086	stim14_sf2_pattern2_cont2_shape1.png	2	2	2	1	1	4	0	0	0	0	0	0	0	0	0	0	0	0	1	14
177.9697265625	0.100024427457356	364482	196	10	stim10_sf2_pattern1_cont2_shape1.png	1	24	0	436.646244373694	436.746268801151	0.100024427457356	stim10_sf2_pattern1_cont2_shape1.png	2	1	2	1	1	4	0	0	0	0	0	0	0	0	0	0	0	0	1	14
178.4697265625	0.099976334983694	365506	197	3	stim03_sf1_pattern1_cont2_shape2.png	1	25	0	437.146204932001	437.246181266984	0.099976334983694	stim03_sf1_pattern1_cont2_shape2.png	1	1	2	2	1	1	0	0	0	0	0	0	0	0	0	0	0	0	1	14
178.9697265625	0.0999561009548415	366530	198	6	stim06_sf1_pattern2_cont2_shape1.png	1	26	0	437.646192175765	437.74614827672	0.0999561009548415	stim06_sf1_pattern2_cont2_shape1.png	1	2	2	1	1	3	0	0	0	0	0	0	0	0	0	0	0	0	1	14
179.4697265625	0.0999716430351327	367554	199	2	stim02_sf1_pattern1_cont2_shape1.png	1	27	0	438.146170622126	438.246142265161	0.0999716430351327	stim02_sf1_pattern1_cont2_shape1.png	1	1	2	1	1	3	0	0	0	0	0	0	0	0	0	0	0	0	1	14
179.9697265625	0.0999690038142944	368578	200	11	stim11_sf2_pattern1_cont2_shape2.png	1	28	0	438.646188363557	438.746157367371	0.0999690038142944	stim11_sf2_pattern1_cont2_shape2.png	2	1	2	2	1	2	0	0	0	0	0	0	0	0	0	0	0	0	1	14
180.4697265625	0.10000214070169	369602	201	1	stim01_sf1_pattern1_cont1_shape2.png	1	29	0	439.146182645244	439.246184785946	0.10000214070169	stim01_sf1_pattern1_cont1_shape2.png	1	1	1	2	1	1	0	0	0	0	0	0	0	0	0	0	0	0	1	14
180.9697265625	0.0999865986223085	370626	202	12	stim12_sf2_pattern2_cont1_shape1.png	1	30	0	439.646194228492	439.746180827115	0.0999865986223085	stim12_sf2_pattern2_cont1_shape1.png	2	2	1	1	1	4	0	0	0	0	0	0	0	0	0	0	0	0	1	14
181.4697265625	0.0999810269322552	371650	203	4	stim04_sf1_pattern2_cont1_shape1.png	1	31	0	440.146170622126	440.246151649058	0.0999810269322552	stim04_sf1_pattern2_cont1_shape1.png	1	2	1	1	1	3	0	0	0	0	0	0	0	0	0	0	0	0	1	14
181.9697265625	0.0999569806963336	372674	204	11	stim11_sf2_pattern1_cont2_shape2.png	1	32	0	440.646183964855	440.746140945551	0.0999569806963336	stim11_sf2_pattern1_cont2_shape2.png	2	1	2	2	1	2	0	0	0	0	0	0	0	0	0	0	0	0	1	14
182.4697265625	0.100022081483985	373698	205	12	stim12_sf2_pattern2_cont1_shape1.png	1	33	0	441.146147162382	441.246169243866	0.100022081483985	stim12_sf2_pattern2_cont1_shape1.png	2	2	1	1	1	4	0	0	0	0	0	0	0	0	0	0	0	0	1	14
182.9697265625	0.0999540482280281	374722	206	8	stim08_sf2_pattern1_cont1_shape1.png	1	34	0	441.646175460698	441.746129508926	0.0999540482280281	stim08_sf2_pattern1_cont1_shape1.png	2	1	1	1	1	4	0	0	0	0	0	0	0	0	0	0	0	0	1	14
183.4697265625	0.100029119405917	375746	207	4	stim04_sf1_pattern2_cont1_shape1.png	1	35	0	442.146110213287	442.246139332693	0.100029119405917	stim04_sf1_pattern2_cont1_shape1.png	1	2	1	1	1	3	0	0	0	0	0	0	0	0	0	0	0	0	1	14
183.9697265625	0.100004193429413	376770	208	2	stim02_sf1_pattern1_cont2_shape1.png	1	36	0	442.64616431732	442.746168510749	0.100004193429413	stim02_sf1_pattern1_cont2_shape1.png	1	1	2	1	1	3	0	0	0	0	0	0	0	0	0	0	0	0	1	14
184.4697265625	0.099985132387701	377794	209	9	stim09_sf2_pattern1_cont1_shape2.png	1	37	0	443.14617208836	443.246157220748	0.099985132387701	stim09_sf2_pattern1_cont1_shape2.png	2	1	1	2	1	2	0	0	0	0	0	0	0	0	0	0	0	0	1	14
184.9697265625	0.098852906529828	378818	210	5	stim05_sf1_pattern2_cont1_shape2.png	1	38	0	443.647279241617	443.746132148147	0.098852906529828	stim05_sf1_pattern2_cont1_shape2.png	1	2	1	2	1	1	0	0	0	0	0	0	0	0	0	0	0	0	1	14
185.4697265625	0.100015336807701	379842	211	0	stim00_sf1_pattern1_cont1_shape1.png	1	39	0	444.146131033809	444.246146370617	0.100015336807701	stim00_sf1_pattern1_cont1_shape1.png	1	1	1	1	1	3	0	0	0	0	0	0	0	0	0	0	0	0	1	14
185.9697265625	0.0999833729074453	380866	212	1	stim01_sf1_pattern1_cont1_shape2.png	1	40	0	444.646131180432	444.74611455334	0.0999833729074453	stim01_sf1_pattern1_cont1_shape2.png	1	1	1	2	1	1	0	0	0	0	0	0	0	0	0	0	0	0	1	14
186.4697265625	0.100018269275097	381890	213	6	stim06_sf1_pattern2_cont2_shape1.png	1	41	0	445.146073264192	445.246091533467	0.100018269275097	stim06_sf1_pattern2_cont2_shape1.png	1	2	2	1	1	3	0	0	0	0	0	0	0	0	0	0	0	0	1	14
186.9697265625	0.0999798539451149	382914	214	13	stim13_sf2_pattern2_cont1_shape2.png	1	42	0	445.646095111078	445.746074965023	0.0999798539451149	stim13_sf2_pattern2_cont1_shape2.png	2	2	1	2	1	2	0	0	0	0	0	0	0	0	0	0	0	0	1	14
187.4697265625	0.0999722295282481	383938	215	10	stim10_sf2_pattern1_cont2_shape1.png	1	43	0	446.146083234583	446.246055464111	0.0999722295282481	stim10_sf2_pattern1_cont2_shape1.png	2	1	2	1	1	4	0	0	0	0	0	0	0	0	0	0	0	0	1	14
187.9697265625	0.0999965690125464	384962	216	7	stim07_sf1_pattern2_cont2_shape2.png	1	44	0	446.646080155491	446.746076724504	0.0999965690125464	stim07_sf1_pattern2_cont2_shape2.png	1	2	2	2	1	1	0	0	0	0	0	0	0	0	0	0	0	0	1	14
188.4697265625	0.0999769214777189	385986	217	15	stim15_sf2_pattern2_cont2_shape2.png	1	45	0	447.146079715621	447.246056637098	0.0999769214777189	stim15_sf2_pattern2_cont2_shape2.png	2	2	2	2	1	2	0	0	0	0	0	0	0	0	0	0	0	0	1	14
188.9697265625	0.100011524599722	387010	218	3	stim03_sf1_pattern1_cont2_shape2.png	1	46	0	447.646060214709	447.746071739309	0.100011524599722	stim03_sf1_pattern1_cont2_shape2.png	1	1	2	2	1	1	0	0	0	0	0	0	0	0	0	0	0	0	1	14
189.4697265625	0.0999901175837294	388034	219	14	stim14_sf2_pattern2_cont2_shape1.png	1	47	0	448.146075023672	448.246065141256	0.0999901175837294	stim14_sf2_pattern2_cont2_shape1.png	2	2	2	1	1	4	0	0	0	0	0	0	0	0	0	0	0	0	1	14
189.96923828125	0.10001416382056	389057	220	5	stim05_sf1_pattern2_cont1_shape2.png	1	48	0	448.646058748475	448.746072912296	0.10001416382056	stim05_sf1_pattern2_cont1_shape2.png	1	2	1	2	1	1	0	0	0	0	0	0	0	0	0	0	0	0	1	14
190.46923828125	0.0999904108293777	390081	221	9	stim09_sf2_pattern1_cont1_shape2.png	1	49	0	449.146059481593	449.246049892422	0.0999904108293777	stim09_sf2_pattern1_cont1_shape2.png	2	1	1	2	1	2	0	0	0	0	0	0	0	0	0	0	0	0	1	14
190.96923828125	0.0999974487522195	391105	222	13	stim13_sf2_pattern2_cont1_shape2.png	1	50	0	449.646066079646	449.746063528398	0.0999974487522195	stim13_sf2_pattern2_cont1_shape2.png	2	2	1	2	1	2	0	0	0	0	0	0	0	0	0	0	0	0	1	14
191.46923828125	0.0999830796608876	392129	223	8	stim08_sf2_pattern1_cont1_shape1.png	1	51	0	450.146049804448	450.246032884109	0.0999830796608876	stim08_sf2_pattern1_cont1_shape1.png	2	1	1	1	1	4	0	0	0	0	0	0	0	0	0	0	0	0	1	14
191.96923828125	0.100001554207665	393153	224	4	stim04_sf1_pattern2_cont1_shape1.png	1	52	0	450.646040273928	450.746041828135	0.100001554207665	stim04_sf1_pattern2_cont1_shape1.png	1	2	1	1	1	3	0	0	0	0	0	0	0	0	0	0	0	0	1	14
192.46923828125	0.0999945162848235	394177	225	2	stim02_sf1_pattern1_cont2_shape1.png	1	53	0	451.146016960808	451.246011477093	0.0999945162848235	stim02_sf1_pattern1_cont2_shape1.png	1	1	2	1	1	3	0	0	0	0	0	0	0	0	0	0	0	0	1	14
192.96923828125	0.100003606935388	395201	226	6	stim06_sf1_pattern2_cont2_shape1.png	1	54	0	451.646024731848	451.746028338784	0.100003606935388	stim06_sf1_pattern2_cont2_shape1.png	1	2	2	1	1	3	0	0	0	0	0	0	0	0	0	0	0	0	1	14
193.46923828125	0.100000381221435	396225	227	15	stim15_sf2_pattern2_cont2_shape2.png	1	55	0	452.146001418728	452.246001799949	0.100000381221435	stim15_sf2_pattern2_cont2_shape2.png	2	2	2	2	1	2	0	0	0	0	0	0	0	0	0	0	0	0	1	14
193.96923828125	0.100027359925662	397249	228	10	stim10_sf2_pattern1_cont2_shape1.png	1	56	0	452.645984557037	452.746011916963	0.100027359925662	stim10_sf2_pattern1_cont2_shape1.png	2	1	2	1	1	4	0	0	0	0	0	0	0	0	0	0	0	0	1	14
194.46923828125	0.10001064485823	398273	229	14	stim14_sf2_pattern2_cont2_shape1.png	1	57	0	453.145972387296	453.245983032154	0.10001064485823	stim14_sf2_pattern2_cont2_shape1.png	2	2	2	1	1	4	0	0	0	0	0	0	0	0	0	0	0	0	1	14
194.96923828125	0.0999942230382658	399297	230	0	stim00_sf1_pattern1_cont1_shape1.png	1	58	0	453.645998632884	453.745992855922	0.0999942230382658	stim00_sf1_pattern1_cont1_shape1.png	1	1	1	1	1	3	0	0	0	0	0	0	0	0	0	0	0	0	1	14
195.46923828125	0.100000381220525	400321	231	3	stim03_sf1_pattern1_cont2_shape2.png	1	59	0	454.145973267036	454.245973648257	0.100000381220525	stim03_sf1_pattern1_cont2_shape2.png	1	1	2	2	1	1	0	0	0	0	0	0	0	0	0	0	0	0	1	14
195.96923828125	0.0999971555065713	401345	232	7	stim07_sf1_pattern2_cont2_shape2.png	1	60	0	454.645979571842	454.745976727349	0.0999971555065713	stim07_sf1_pattern2_cont2_shape2.png	1	2	2	2	1	1	0	0	0	0	0	0	0	0	0	0	0	0	1	14
196.46923828125	0.0999886513491219	402369	233	11	stim11_sf2_pattern1_cont2_shape2.png	1	61	0	455.145967695347	455.245956346696	0.0999886513491219	stim11_sf2_pattern1_cont2_shape2.png	2	1	2	2	1	2	0	0	0	0	0	0	0	0	0	0	0	0	1	14
196.96923828125	0.0999675375796869	403393	234	12	stim12_sf2_pattern2_cont1_shape1.png	1	62	0	455.645988369246	455.745955906826	0.0999675375796869	stim12_sf2_pattern2_cont1_shape1.png	2	2	1	1	1	4	0	0	0	0	0	0	0	0	0	0	0	0	1	14
197.46923828125	0.0999930500511255	404417	235	1	stim01_sf1_pattern1_cont1_shape2.png	1	63	0	456.145961243918	456.245954293969	0.0999930500511255	stim01_sf1_pattern1_cont1_shape2.png	1	1	1	2	1	1	0	0	0	0	0	0	0	0	0	0	0	0	1	14
197.96923828125	0.0999927568036583	405441	236	8	stim08_sf2_pattern1_cont1_shape1.png	1	64	0	456.645950247163	456.745943003967	0.0999927568036583	stim08_sf2_pattern1_cont1_shape1.png	2	1	1	1	1	4	0	0	0	0	0	0	0	0	0	0	0	0	1	14
198.46923828125	0.100010058364205	406465	237	9	stim09_sf2_pattern1_cont1_shape2.png	1	65	0	457.145919309627	457.245929367991	0.100010058364205	stim09_sf2_pattern1_cont1_shape2.png	2	1	1	2	1	2	0	0	0	0	0	0	0	0	0	0	0	0	1	14
198.96923828125	0.0999892378431468	407489	238	11	stim11_sf2_pattern1_cont2_shape2.png	1	66	0	457.645931479368	457.745920717211	0.0999892378431468	stim11_sf2_pattern1_cont2_shape2.png	2	1	2	2	1	2	0	0	0	0	0	0	0	0	0	0	0	0	1	14
199.46923828125	0.0999648983597581	408513	239	14	stim14_sf2_pattern2_cont2_shape1.png	1	67	0	458.145953326254	458.245918224614	0.0999648983597581	stim14_sf2_pattern2_cont2_shape1.png	2	2	2	1	1	4	0	0	0	0	0	0	0	0	0	0	0	0	1	14
199.96923828125	0.0999666578400138	409537	240	10	stim10_sf2_pattern1_cont2_shape1.png	1	68	0	458.645921508977	458.745888166817	0.0999666578400138	stim10_sf2_pattern1_cont2_shape1.png	2	1	2	1	1	4	0	0	0	0	0	0	0	0	0	0	0	0	1	14
200.46923828125	0.0999921703105429	410561	241	2	stim02_sf1_pattern1_cont2_shape1.png	1	69	0	459.14589438365	459.24588655396	0.0999921703105429	stim02_sf1_pattern1_cont2_shape1.png	1	1	2	1	1	3	0	0	0	0	0	0	0	0	0	0	0	0	1	14
200.96923828125	0.0999839594005607	411585	242	1	stim01_sf1_pattern1_cont1_shape2.png	1	70	0	459.645883386895	459.745867346295	0.0999839594005607	stim01_sf1_pattern1_cont1_shape2.png	1	1	1	2	1	1	0	0	0	0	0	0	0	0	0	0	0	0	1	14
201.46923828125	0.0999986217402693	412609	243	5	stim05_sf1_pattern2_cont1_shape2.png	1	71	0	460.145841892474	460.245840514214	0.0999986217402693	stim05_sf1_pattern2_cont1_shape2.png	1	2	1	2	1	1	0	0	0	0	0	0	0	0	0	0	0	0	1	14
201.96923828125	0.10000214070169	413633	244	4	stim04_sf1_pattern2_cont1_shape1.png	1	72	0	460.645838226889	460.745840367591	0.10000214070169	stim04_sf1_pattern2_cont1_shape1.png	1	2	1	1	1	3	0	0	0	0	0	0	0	0	0	0	0	0	1	14
202.46923828125	0.100005659663111	414657	245	15	stim15_sf2_pattern2_cont2_shape2.png	1	73	0	461.145826350394	461.245832010057	0.100005659663111	stim15_sf2_pattern2_cont2_shape2.png	2	2	2	2	1	2	0	0	0	0	0	0	0	0	0	0	0	0	1	14
202.96923828125	0.0999977419996867	415681	246	6	stim06_sf1_pattern2_cont2_shape1.png	1	74	0	461.645827376758	461.745825118757	0.0999977419996867	stim06_sf1_pattern2_cont2_shape1.png	1	2	2	1	1	3	0	0	0	0	0	0	0	0	0	0	0	0	1	14
203.46923828125	0.100031465380198	416705	247	13	stim13_sf2_pattern2_cont1_shape2.png	1	75	0	462.145814034029	462.245845499409	0.100031465380198	stim13_sf2_pattern2_cont1_shape2.png	2	2	1	2	1	2	0	0	0	0	0	0	0	0	0	0	0	0	1	14
203.96923828125	0.0999810269322552	417729	248	3	stim03_sf1_pattern1_cont2_shape2.png	1	76	0	462.645845264812	462.745826291744	0.0999810269322552	stim03_sf1_pattern1_cont2_shape2.png	1	1	2	2	1	1	0	0	0	0	0	0	0	0	0	0	0	0	1	14
204.46923828125	0.0999769214777189	418753	249	7	stim07_sf1_pattern2_cont2_shape2.png	1	77	0	463.145846877669	463.245823799147	0.0999769214777189	stim07_sf1_pattern2_cont2_shape2.png	1	2	2	2	1	1	0	0	0	0	0	0	0	0	0	0	0	0	1	14
204.96923828125	0.100022961223658	419777	250	0	stim00_sf1_pattern1_cont1_shape1.png	1	78	0	463.645820045588	463.745843006812	0.100022961223658	stim00_sf1_pattern1_cont1_shape1.png	1	1	1	1	1	3	0	0	0	0	0	0	0	0	0	0	0	0	1	14
205.46923828125	0.100015043560234	420801	251	12	stim12_sf2_pattern2_cont1_shape1.png	1	79	0	464.145817552991	464.245832596551	0.100015043560234	stim12_sf2_pattern2_cont1_shape1.png	2	2	1	1	1	4	0	0	0	0	0	0	0	0	0	0	0	0	1	14
205.96923828125	0.0999898243362622	421825	252	7	stim07_sf1_pattern2_cont2_shape2.png	1	80	0	464.645835587668	464.745825412005	0.0999898243362622	stim07_sf1_pattern2_cont2_shape2.png	1	2	2	2	1	1	0	0	0	0	0	0	0	0	0	0	0	0	1	14
206.46923828125	0.100019149015679	422849	253	15	stim15_sf2_pattern2_cont2_shape2.png	1	81	0	465.145802890651	465.245822039667	0.100019149015679	stim15_sf2_pattern2_cont2_shape2.png	2	2	2	2	1	2	0	0	0	0	0	0	0	0	0	0	0	0	1	14
206.96923828125	0.0999942230382658	423873	254	2	stim02_sf1_pattern1_cont2_shape1.png	1	82	0	465.645810954938	465.745805177976	0.0999942230382658	stim02_sf1_pattern1_cont2_shape1.png	1	1	2	1	1	3	0	0	0	0	0	0	0	0	0	0	0	0	1	14
207.46875	0.0999901175828199	424896	255	6	stim06_sf1_pattern2_cont2_shape1.png	1	83	0	466.145807582599	466.245797700182	0.0999901175828199	stim06_sf1_pattern2_cont2_shape1.png	1	2	2	1	1	3	0	0	0	0	0	0	0	0	0	0	0	0	1	14
207.96875	0.100015336806791	425920	256	5	stim05_sf1_pattern2_cont1_shape2.png	1	84	0	466.645779577531	466.745794914338	0.100015336806791	stim05_sf1_pattern2_cont1_shape2.png	1	2	1	2	1	1	0	0	0	0	0	0	0	0	0	0	0	0	1	14
208.46875	0.0999997947274096	426944	257	0	stim00_sf1_pattern1_cont1_shape1.png	1	85	0	467.145772099738	467.245771894465	0.0999997947274096	stim00_sf1_pattern1_cont1_shape1.png	1	1	1	1	1	3	0	0	0	0	0	0	0	0	0	0	0	0	1	14
208.96875	0.0999953960254061	427968	258	12	stim12_sf2_pattern2_cont1_shape1.png	1	86	0	467.645780750518	467.745776146544	0.0999953960254061	stim12_sf2_pattern2_cont1_shape1.png	2	2	1	1	1	4	0	0	0	0	0	0	0	0	0	0	0	0	1	14
209.46875	0.0999953960254061	428992	259	3	stim03_sf1_pattern1_cont2_shape2.png	1	87	0	468.1457618361	468.245757232125	0.0999953960254061	stim03_sf1_pattern1_cont2_shape2.png	1	1	2	2	1	1	0	0	0	0	0	0	0	0	0	0	0	0	1	14
209.96875	0.10004319525251	430016	260	11	stim11_sf2_pattern1_cont2_shape2.png	1	88	0	468.645739109474	468.745782304726	0.10004319525251	stim11_sf2_pattern1_cont2_shape2.png	2	1	2	2	1	2	0	0	0	0	0	0	0	0	0	0	0	0	1	14
210.46875	0.100013577326536	431040	261	14	stim14_sf2_pattern2_cont2_shape1.png	1	89	0	469.145720488303	469.245734065629	0.100013577326536	stim14_sf2_pattern2_cont2_shape1.png	2	2	2	1	1	4	0	0	0	0	0	0	0	0	0	0	0	0	1	14
210.96875	0.100006539403694	432064	262	4	stim04_sf1_pattern2_cont1_shape1.png	1	90	0	469.645731778304	469.745738317708	0.100006539403694	stim04_sf1_pattern2_cont1_shape1.png	1	2	1	1	1	3	0	0	0	0	0	0	0	0	0	0	0	0	1	14
211.46875	0.0999936365442409	433088	263	8	stim08_sf2_pattern1_cont1_shape1.png	1	91	0	470.145727819473	470.245721456017	0.0999936365442409	stim08_sf2_pattern1_cont1_shape1.png	2	1	1	1	1	4	0	0	0	0	0	0	0	0	0	0	0	0	1	14
211.96875	0.0999813201788129	434112	264	13	stim13_sf2_pattern2_cont1_shape2.png	1	92	0	470.64575318532	470.745734505499	0.0999813201788129	stim13_sf2_pattern2_cont1_shape2.png	2	2	1	2	1	2	0	0	0	0	0	0	0	0	0	0	0	0	1	14
212.46875	0.100006539403694	435136	265	1	stim01_sf1_pattern1_cont1_shape2.png	1	93	0	471.145705532716	471.24571207212	0.100006539403694	stim01_sf1_pattern1_cont1_shape2.png	1	1	1	2	1	1	0	0	0	0	0	0	0	0	0	0	0	0	1	14
212.96875	0.0999971555056618	436160	266	10	stim10_sf2_pattern1_cont2_shape1.png	1	94	0	471.645717995705	471.745715151211	0.0999971555056618	stim10_sf2_pattern1_cont2_shape1.png	2	1	2	1	1	4	0	0	0	0	0	0	0	0	0	0	0	0	1	14
213.46875	0.0999921703105429	437184	267	9	stim09_sf2_pattern1_cont1_shape2.png	1	95	0	472.145702600249	472.24569477056	0.0999921703105429	stim09_sf2_pattern1_cont1_shape2.png	2	1	1	2	1	2	0	0	0	0	0	0	0	0	0	0	0	0	1	14
213.96875	0.0999745755034382	438208	268	14	stim14_sf2_pattern2_cont2_shape1.png	1	96	0	472.645703626612	472.745678202115	0.0999745755034382	stim14_sf2_pattern2_cont2_shape1.png	2	2	2	1	1	4	0	0	0	0	0	0	0	0	0	0	0	0	1	14
214.46875	0.100015923300816	439232	269	13	stim13_sf2_pattern2_cont1_shape2.png	1	97	0	473.145669170114	473.245685093415	0.100015923300816	stim13_sf2_pattern2_cont1_shape2.png	2	2	1	2	1	2	0	0	0	0	0	0	0	0	0	0	0	0	1	14
214.96875	0.0999757484905786	440256	270	2	stim02_sf1_pattern1_cont2_shape1.png	1	98	0	473.645682219597	473.745657968087	0.0999757484905786	stim02_sf1_pattern1_cont2_shape1.png	1	1	2	1	1	3	0	0	0	0	0	0	0	0	0	0	0	0	1	14
215.46875	0.100025307197939	441280	271	8	stim08_sf2_pattern1_cont1_shape1.png	1	99	0	474.145655094268	474.245680401466	0.100025307197939	stim08_sf2_pattern1_cont1_shape1.png	2	1	1	1	1	4	0	0	0	0	0	0	0	0	0	0	0	0	1	14
215.96875	0.10001064485823	442304	272	1	stim01_sf1_pattern1_cont1_shape2.png	1	100	0	474.645670782972	474.74568142783	0.10001064485823	stim01_sf1_pattern1_cont1_shape2.png	1	1	1	2	1	1	0	0	0	0	0	0	0	0	0	0	0	0	1	14
216.46875	0.100000087973967	443328	273	12	stim12_sf2_pattern2_cont1_shape1.png	1	101	0	475.145608761276	475.24560884925	0.100000087973967	stim12_sf2_pattern2_cont1_shape1.png	2	2	1	1	1	4	0	0	0	0	0	0	0	0	0	0	0	0	1	14
216.96875	0.0999997947274096	444352	274	5	stim05_sf1_pattern2_cont1_shape2.png	1	102	0	475.645609494392	475.74560928912	0.0999997947274096	stim05_sf1_pattern2_cont1_shape2.png	1	2	1	2	1	1	0	0	0	0	0	0	0	0	0	0	0	0	1	14
217.46875	0.100004193428504	445376	275	6	stim06_sf1_pattern2_cont2_shape1.png	1	103	0	476.145591459715	476.245595653144	0.100004193428504	stim06_sf1_pattern2_cont2_shape1.png	1	2	2	1	1	3	0	0	0	0	0	0	0	0	0	0	0	0	1	14
217.96875	0.0999754552440208	446400	276	15	stim15_sf2_pattern2_cont2_shape2.png	1	104	0	476.645618291796	476.74559374704	0.0999754552440208	stim15_sf2_pattern2_cont2_shape2.png	2	2	2	2	1	2	0	0	0	0	0	0	0	0	0	0	0	0	1	14
218.46875	0.0999783877114169	447424	277	3	stim03_sf1_pattern1_cont2_shape2.png	1	105	0	477.145599963872	477.245578351583	0.0999783877114169	stim03_sf1_pattern1_cont2_shape2.png	1	1	2	2	1	1	0	0	0	0	0	0	0	0	0	0	0	0	1	14
218.96875	0.0999968622591041	448448	278	0	stim00_sf1_pattern1_cont1_shape1.png	1	106	0	477.645605682184	477.745602544443	0.0999968622591041	stim00_sf1_pattern1_cont1_shape1.png	1	1	1	1	1	3	0	0	0	0	0	0	0	0	0	0	0	0	1	14
219.46875	0.100010058365115	449472	279	11	stim11_sf2_pattern1_cont2_shape2.png	1	107	0	478.145587061013	478.245597119379	0.100010058365115	stim11_sf2_pattern1_cont2_shape2.png	2	1	2	2	1	2	0	0	0	0	0	0	0	0	0	0	0	0	1	14
219.96875	0.0999959825185215	450496	280	4	stim04_sf1_pattern2_cont1_shape1.png	1	108	0	478.645592779326	478.745588761844	0.0999959825185215	stim04_sf1_pattern2_cont1_shape1.png	1	2	1	1	1	3	0	0	0	0	0	0	0	0	0	0	0	0	1	14
220.46875	0.100020615249377	451520	281	9	stim09_sf2_pattern1_cont1_shape2.png	1	109	0	479.145568293218	479.245588908468	0.100020615249377	stim09_sf2_pattern1_cont1_shape2.png	2	1	1	2	1	2	0	0	0	0	0	0	0	0	0	0	0	0	1	14
220.96875	0.0999839594005607	452544	282	10	stim10_sf2_pattern1_cont2_shape1.png	1	110	0	479.645604802444	479.745588761844	0.0999839594005607	stim10_sf2_pattern1_cont2_shape1.png	2	1	2	1	1	4	0	0	0	0	0	0	0	0	0	0	0	0	1	14
221.46875	0.0999842526471184	453568	283	7	stim07_sf1_pattern2_cont2_shape2.png	1	111	0	480.145594392183	480.24557864483	0.0999842526471184	stim07_sf1_pattern2_cont2_shape2.png	1	2	2	2	1	1	0	0	0	0	0	0	0	0	0	0	0	0	1	14
221.96875	0.0999904108302871	454592	284	9	stim09_sf2_pattern1_cont1_shape2.png	1	112	0	480.645585448156	480.745575858986	0.0999904108302871	stim09_sf2_pattern1_cont1_shape2.png	2	1	1	2	1	2	0	0	0	0	0	0	0	0	0	0	0	0	1	14
222.46875	0.0999962757659887	455616	285	5	stim05_sf1_pattern2_cont1_shape2.png	1	113	0	481.14557181218	481.245568087946	0.0999962757659887	stim05_sf1_pattern2_cont1_shape2.png	1	2	1	2	1	1	0	0	0	0	0	0	0	0	0	0	0	0	1	14
222.96875	0.100001847454223	456640	286	10	stim10_sf2_pattern1_cont2_shape1.png	1	114	0	481.645569906076	481.74557175353	0.100001847454223	stim10_sf2_pattern1_cont2_shape1.png	2	1	2	1	1	4	0	0	0	0	0	0	0	0	0	0	0	0	1	14
223.46875	0.0999986217402693	457664	287	3	stim03_sf1_pattern1_cont2_shape2.png	1	115	0	482.145542487501	482.245541109241	0.0999986217402693	stim03_sf1_pattern1_cont2_shape2.png	1	1	2	2	1	1	0	0	0	0	0	0	0	0	0	0	0	0	1	14
223.96875	0.0999992082333847	458688	288	2	stim02_sf1_pattern1_cont2_shape1.png	1	116	0	482.645544980099	482.745544188332	0.0999992082333847	stim02_sf1_pattern1_cont2_shape1.png	1	1	2	1	1	3	0	0	0	0	0	0	0	0	0	0	0	0	1	14
224.46875	0.100003606935388	459712	289	7	stim07_sf1_pattern2_cont2_shape2.png	1	117	0	483.145534863084	483.24553847002	0.100003606935388	stim07_sf1_pattern2_cont2_shape2.png	1	2	2	2	1	1	0	0	0	0	0	0	0	0	0	0	0	0	1	14
224.96826171875	0.0999951027788484	460735	290	11	stim11_sf2_pattern1_cont2_shape2.png	1	118	0	483.64553383672	483.745528939499	0.0999951027788484	stim11_sf2_pattern1_cont2_shape2.png	2	1	2	2	1	2	0	0	0	0	0	0	0	0	0	0	0	0	1	14
225.46826171875	0.100014750313676	461759	291	1	stim01_sf1_pattern1_cont1_shape2.png	1	119	0	484.14550964386	484.245524394174	0.100014750313676	stim01_sf1_pattern1_cont1_shape2.png	1	1	1	2	1	1	0	0	0	0	0	0	0	0	0	0	0	0	1	14
225.96826171875	0.09996108615087	462783	292	4	stim04_sf1_pattern2_cont1_shape1.png	1	120	0	484.645521227108	484.745482313259	0.09996108615087	stim04_sf1_pattern2_cont1_shape1.png	1	2	1	1	1	3	0	0	0	0	0	0	0	0	0	0	0	0	1	14
226.46826171875	0.0999754552440208	463807	293	6	stim06_sf1_pattern2_cont2_shape1.png	1	121	0	485.145516388537	485.245491843781	0.0999754552440208	stim06_sf1_pattern2_cont2_shape1.png	1	2	2	1	1	3	0	0	0	0	0	0	0	0	0	0	0	0	1	14
226.96826171875	0.0999968622600136	464831	294	12	stim12_sf2_pattern2_cont1_shape1.png	1	122	0	485.64550187282	485.74549873508	0.0999968622600136	stim12_sf2_pattern2_cont1_shape1.png	2	2	1	1	1	4	0	0	0	0	0	0	0	0	0	0	0	0	1	14
227.46826171875	0.099998914986827	465855	295	14	stim14_sf2_pattern2_cont2_shape1.png	1	123	0	486.145480905675	486.245479820662	0.099998914986827	stim14_sf2_pattern2_cont2_shape1.png	2	2	2	1	1	4	0	0	0	0	0	0	0	0	0	0	0	0	1	14
227.96826171875	0.0999968622600136	466879	296	0	stim00_sf1_pattern1_cont1_shape1.png	1	124	0	486.645486917234	486.745483779494	0.0999968622600136	stim00_sf1_pattern1_cont1_shape1.png	1	1	1	1	1	3	0	0	0	0	0	0	0	0	0	0	0	0	1	14
228.46826171875	0.100005952909669	467903	297	8	stim08_sf2_pattern1_cont1_shape1.png	1	125	0	487.145462431127	487.245468384037	0.100005952909669	stim08_sf2_pattern1_cont1_shape1.png	2	1	1	1	1	4	0	0	0	0	0	0	0	0	0	0	0	0	1	14
228.96826171875	0.0999986217393598	468927	298	13	stim13_sf2_pattern2_cont1_shape2.png	1	126	0	487.645467562947	487.745466184686	0.0999986217393598	stim13_sf2_pattern2_cont1_shape2.png	2	2	1	2	1	2	0	0	0	0	0	0	0	0	0	0	0	0	1	14
229.46826171875	0.0999904108302871	469951	299	15	stim15_sf2_pattern2_cont2_shape2.png	1	127	0	488.145455686451	488.245446097281	0.0999904108302871	stim15_sf2_pattern2_cont2_shape2.png	2	2	2	2	1	2	0	0	0	0	0	0	0	0	0	0	0	0	1	14
229.96826171875	0.0999927568045678	470975	300	8	stim08_sf2_pattern1_cont1_shape1.png	1	128	0	488.645459352036	488.74545210884	0.0999927568045678	stim08_sf2_pattern1_cont1_shape1.png	2	1	1	1	1	4	0	0	0	0	0	0	0	0	0	0	0	0	1	14
230.46826171875	0.0999801471916726	471999	301	13	stim13_sf2_pattern2_cont1_shape2.png	1	129	0	489.145446009307	489.245426156499	0.0999801471916726	stim13_sf2_pattern2_cont1_shape2.png	2	2	1	2	1	2	0	0	0	0	0	0	0	0	0	0	0	0	1	14
230.96826171875	0.0999924635580101	473023	302	4	stim04_sf1_pattern2_cont1_shape1.png	1	130	0	489.645423869174	489.745416332732	0.0999924635580101	stim04_sf1_pattern2_cont1_shape1.png	1	2	1	1	1	3	0	0	0	0	0	0	0	0	0	0	0	0	1	14
231.46826171875	0.100021201743402	474047	303	15	stim15_sf2_pattern2_cont2_shape2.png	1	131	0	490.145372990856	490.2453941926	0.100021201743402	stim15_sf2_pattern2_cont2_shape2.png	2	2	2	2	1	2	0	0	0	0	0	0	0	0	0	0	0	0	1	14
231.96826171875	0.099972816022273	475071	304	9	stim09_sf2_pattern1_cont1_shape2.png	1	132	0	490.645388093066	490.745360909088	0.099972816022273	stim09_sf2_pattern1_cont1_shape2.png	2	1	1	2	1	2	0	0	0	0	0	0	0	0	0	0	0	0	1	14
232.46826171875	0.100020028755353	476095	305	0	stim00_sf1_pattern1_cont1_shape1.png	1	133	0	491.145360967738	491.245380996494	0.100020028755353	stim00_sf1_pattern1_cont1_shape1.png	1	1	1	1	1	3	0	0	0	0	0	0	0	0	0	0	0	0	1	14
232.96826171875	0.100016216547374	477119	306	14	stim14_sf2_pattern2_cont2_shape1.png	1	134	0	491.645369032025	491.745385248572	0.100016216547374	stim14_sf2_pattern2_cont2_shape1.png	2	2	2	1	1	4	0	0	0	0	0	0	0	0	0	0	0	0	1	14
233.46826171875	0.100003606935388	478143	307	5	stim05_sf1_pattern2_cont1_shape2.png	1	135	0	492.145344545917	492.245348152853	0.100003606935388	stim05_sf1_pattern2_cont1_shape2.png	1	2	1	2	1	1	0	0	0	0	0	0	0	0	0	0	0	0	1	14
233.96826171875	0.0999977419996867	479167	308	3	stim03_sf1_pattern1_cont2_shape2.png	1	136	0	492.645357302153	492.745355044152	0.0999977419996867	stim03_sf1_pattern1_cont2_shape2.png	1	1	2	2	1	1	0	0	0	0	0	0	0	0	0	0	0	0	1	14
234.46826171875	0.100017389534514	480191	309	10	stim10_sf2_pattern1_cont2_shape1.png	1	137	0	493.145358915011	493.245376304545	0.100017389534514	stim10_sf2_pattern1_cont2_shape1.png	2	1	2	1	1	4	0	0	0	0	0	0	0	0	0	0	0	0	1	14
234.96826171875	0.100019735509704	481215	310	8	stim08_sf2_pattern1_cont1_shape1.png	1	138	1	493.645363167088	493.745382902598	0.100019735509704	stim08_sf2_pattern1_cont1_shape1.png	2	1	1	1	1	4	0	0	0	0	0	0	0	0	0	0	0	0	1	14
235.46826171875	0.100041435771345	482239	311	8	stim08_sf2_pattern1_cont1_shape1.png	1	139	1	494.145357155529	494.245398591301	0.100041435771345	stim08_sf2_pattern1_cont1_shape1.png	2	1	1	1	1	4	0	0	0	0	0	0	0	0	0	0	0	0	1	14
235.96826171875	0.100000674467992	483263	312	1	stim01_sf1_pattern1_cont1_shape2.png	1	140	2	494.645359648127	494.745360322595	0.100000674467992	stim01_sf1_pattern1_cont1_shape2.png	1	1	1	2	1	1	0	0	0	0	0	0	0	0	0	0	0	0	1	14
236.46826171875	0.0999939297917081	484287	313	4	stim04_sf1_pattern2_cont1_shape1.png	1	141	2	495.14536624618	495.245360175972	0.0999939297917081	stim04_sf1_pattern2_cont1_shape1.png	1	2	1	1	1	3	0	0	0	0	0	0	0	0	0	0	0	0	1	14
236.96826171875	0.0999863053748413	485311	314	7	stim07_sf1_pattern2_cont2_shape2.png	1	142	0	495.64536492657	495.745351231944	0.0999863053748413	stim07_sf1_pattern2_cont2_shape2.png	1	2	2	2	1	1	0	0	0	0	0	0	0	0	0	0	0	0	1	14
237.46826171875	0.100038503303949	486335	315	1	stim01_sf1_pattern1_cont1_shape2.png	1	143	0	496.145299972405	496.245338475709	0.100038503303949	stim01_sf1_pattern1_cont1_shape2.png	1	1	1	2	1	1	0	0	0	0	0	0	0	0	0	0	0	0	1	14
237.96826171875	0.0999810269331647	487359	316	11	stim11_sf2_pattern1_cont2_shape2.png	1	144	0	496.64533560189	496.745316628823	0.0999810269331647	stim11_sf2_pattern1_cont2_shape2.png	2	1	2	2	1	2	0	0	0	0	0	0	0	0	0	0	0	0	1	14
238.46826171875	0.0999760417380458	488383	317	12	stim12_sf2_pattern2_cont1_shape1.png	1	145	0	497.145307010328	497.245283052066	0.0999760417380458	stim12_sf2_pattern2_cont1_shape1.png	2	2	1	1	1	4	0	0	0	0	0	0	0	0	0	0	0	0	1	14
238.96826171875	0.0999965690125464	489407	318	6	stim06_sf1_pattern2_cont2_shape1.png	1	146	0	497.645320646304	497.745317215316	0.0999965690125464	stim06_sf1_pattern2_cont2_shape1.png	1	2	2	1	1	3	0	0	0	0	0	0	0	0	0	0	0	0	1	14
239.46826171875	0.0999995014808519	490431	319	2	stim02_sf1_pattern1_cont2_shape1.png	1	147	0	498.145295280457	498.245294781937	0.0999995014808519	stim02_sf1_pattern1_cont2_shape1.png	1	1	2	1	1	3	0	0	0	0	0	0	0	0	0	0	0	0	1	14
239.96826171875	0.0999880648560065	491455	320	5	stim05_sf1_pattern2_cont1_shape2.png	1	148	0	498.645304224484	498.74529228934	0.0999880648560065	stim05_sf1_pattern2_cont1_shape2.png	1	2	1	2	1	1	0	0	0	0	0	0	0	0	0	0	0	0	1	14
240.46826171875	0.100014457066209	492479	321	11	stim11_sf2_pattern1_cont2_shape2.png	1	149	0	499.145260384089	499.245274841155	0.100014457066209	stim11_sf2_pattern1_cont2_shape2.png	2	1	2	2	1	2	0	0	0	0	0	0	0	0	0	0	0	0	1	14
240.96826171875	0.0990584725304871	493503	322	4	stim04_sf1_pattern2_cont1_shape1.png	1	150	0	499.646215635508	499.745274108039	0.0990584725304871	stim04_sf1_pattern2_cont1_shape1.png	1	2	1	1	1	3	0	0	0	0	0	0	0	0	0	0	0	0	1	14
241.46826171875	0.099998914986827	494527	323	7	stim07_sf1_pattern2_cont2_shape2.png	1	151	0	500.145262436817	500.245261351803	0.099998914986827	stim07_sf1_pattern2_cont2_shape2.png	1	2	2	2	1	1	0	0	0	0	0	0	0	0	0	0	0	0	1	14
241.96826171875	0.099985132387701	495551	324	12	stim12_sf2_pattern2_cont1_shape1.png	1	152	0	500.645280764741	500.745265897129	0.099985132387701	stim12_sf2_pattern2_cont1_shape1.png	2	2	1	1	1	4	0	0	0	0	0	0	0	0	0	0	0	0	1	14
242.4677734375	0.0999692970617616	496574	325	14	stim14_sf2_pattern2_cont2_shape1.png	1	153	0	501.145264489543	501.245233786605	0.0999692970617616	stim14_sf2_pattern2_cont2_shape1.png	2	2	2	1	1	4	0	0	0	0	0	0	0	0	0	0	0	0	1	14
242.9677734375	0.0999997947274096	497598	326	1	stim01_sf1_pattern1_cont1_shape2.png	1	154	0	501.645254959023	501.74525475375	0.0999997947274096	stim01_sf1_pattern1_cont1_shape2.png	1	1	1	2	1	1	0	0	0	0	0	0	0	0	0	0	0	0	1	14
243.4677734375	0.100012697586862	498622	327	6	stim06_sf1_pattern2_cont2_shape1.png	1	155	0	502.145231352656	502.245244050243	0.100012697586862	stim06_sf1_pattern2_cont2_shape1.png	1	2	2	1	1	3	0	0	0	0	0	0	0	0	0	0	0	0	1	14
243.9677734375	0.099997448753129	499646	328	9	stim09_sf2_pattern1_cont1_shape2.png	1	156	0	502.645243522398	502.745240971151	0.099997448753129	stim09_sf2_pattern1_cont1_shape2.png	2	1	1	2	1	2	0	0	0	0	0	0	0	0	0	0	0	0	1	14
244.4677734375	0.100001260961108	500670	329	3	stim03_sf1_pattern1_cont2_shape2.png	1	157	0	503.145212584862	503.245213845823	0.100001260961108	stim03_sf1_pattern1_cont2_shape2.png	1	1	2	2	1	1	0	0	0	0	0	0	0	0	0	0	0	0	1	14
244.9677734375	0.0999792674519995	501694	330	2	stim02_sf1_pattern1_cont2_shape1.png	1	158	0	503.645247334606	503.745226602058	0.0999792674519995	stim02_sf1_pattern1_cont2_shape1.png	1	1	2	1	1	3	0	0	0	0	0	0	0	0	0	0	0	0	1	14
245.4677734375	0.0999983284928021	502718	331	0	stim00_sf1_pattern1_cont1_shape1.png	1	159	0	504.145200561744	504.245198890237	0.0999983284928021	stim00_sf1_pattern1_cont1_shape1.png	1	1	1	1	1	3	0	0	0	0	0	0	0	0	0	0	0	0	1	14
245.9677734375	0.0999816134262801	503742	332	13	stim13_sf2_pattern2_cont1_shape2.png	1	160	0	504.645202467847	504.745184081274	0.0999816134262801	stim13_sf2_pattern2_cont1_shape2.png	2	2	1	2	1	2	0	0	0	0	0	0	0	0	0	0	0	0	1	14
246.4677734375	0.100014750313676	504766	333	10	stim10_sf2_pattern1_cont2_shape1.png	1	161	0	505.145143085372	505.245157835686	0.100014750313676	stim10_sf2_pattern1_cont2_shape1.png	2	1	2	1	1	4	0	0	0	0	0	0	0	0	0	0	0	0	1	14
246.9677734375	0.0993059728216394	505790	334	8	stim08_sf2_pattern1_cont1_shape1.png	1	162	0	505.64585728793	505.745163260752	0.0993059728216394	stim08_sf2_pattern1_cont1_shape1.png	2	1	1	1	1	4	0	0	0	0	0	0	0	0	0	0	0	0	1	14
247.4677734375	0.0999909973234026	506814	335	15	stim15_sf2_pattern2_cont2_shape2.png	1	163	0	506.145138100177	506.2451290975	0.0999909973234026	stim15_sf2_pattern2_cont2_shape2.png	2	2	2	2	1	2	0	0	0	0	0	0	0	0	0	0	0	0	1	14
262.23388671875	0.0999936365442409	537055	336	11	stim11_sf2_pattern1_cont2_shape2.png	2	0	0	520.91163477168	521.011628408224	0.0999936365442409	stim11_sf2_pattern1_cont2_shape2.png	2	1	2	2	1	2	0	0	0	0	0	0	0	0	0	0	0	0	1	14
262.73388671875	0.100005659663111	538079	337	3	stim03_sf1_pattern1_cont2_shape2.png	2	1	0	521.41160324765	521.511608907313	0.100005659663111	stim03_sf1_pattern1_cont2_shape2.png	1	1	2	2	1	1	0	0	0	0	0	0	0	0	0	0	0	0	1	14
263.23388671875	0.0999971555056618	539103	338	2	stim02_sf1_pattern1_cont2_shape1.png	2	2	0	521.911606619988	522.011603775493	0.0999971555056618	stim02_sf1_pattern1_cont2_shape1.png	1	1	2	1	1	3	0	0	0	0	0	0	0	0	0	0	0	0	1	14
263.73388671875	0.0999995014799424	540127	339	9	stim09_sf2_pattern1_cont1_shape2.png	2	3	0	522.411608819339	522.511608320819	0.0999995014799424	stim09_sf2_pattern1_cont1_shape2.png	2	1	1	2	1	2	0	0	0	0	0	0	0	0	0	0	0	0	1	14
264.23388671875	0.100001554207665	541151	340	10	stim10_sf2_pattern1_cont2_shape1.png	2	4	0	522.911578761543	523.011580315751	0.100001554207665	stim10_sf2_pattern1_cont2_shape1.png	2	1	2	1	1	4	0	0	0	0	0	0	0	0	0	0	0	0	1	14
264.73388671875	0.0999968622591041	542175	341	0	stim00_sf1_pattern1_cont1_shape1.png	2	5	0	523.411583600115	523.511580462374	0.0999968622591041	stim00_sf1_pattern1_cont1_shape1.png	1	1	1	1	1	3	0	0	0	0	0	0	0	0	0	0	0	0	1	14
265.23388671875	0.0999901175837294	543199	342	8	stim08_sf2_pattern1_cont1_shape1.png	2	6	0	523.911581987257	524.011572104841	0.0999901175837294	stim08_sf2_pattern1_cont1_shape1.png	2	1	1	1	1	4	0	0	0	0	0	0	0	0	0	0	0	0	1	14
265.73388671875	0.0999951027788484	544223	343	5	stim05_sf1_pattern2_cont1_shape2.png	2	7	0	524.411571283749	524.511566386528	0.0999951027788484	stim05_sf1_pattern2_cont1_shape2.png	1	2	1	2	1	1	0	0	0	0	0	0	0	0	0	0	0	0	1	14
266.23388671875	0.0999904108293777	545247	344	12	stim12_sf2_pattern2_cont1_shape1.png	2	8	0	524.911562632969	525.011553043799	0.0999904108293777	stim12_sf2_pattern2_cont1_shape1.png	2	2	1	1	1	4	0	0	0	0	0	0	0	0	0	0	0	0	1	14
266.73388671875	0.100000087973967	546271	345	4	stim04_sf1_pattern2_cont1_shape1.png	2	9	0	525.411550169981	525.511550257955	0.100000087973967	stim04_sf1_pattern2_cont1_shape1.png	1	2	1	1	1	3	0	0	0	0	0	0	0	0	0	0	0	0	1	14
267.23388671875	0.0999687105677367	547295	346	1	stim01_sf1_pattern1_cont1_shape2.png	2	10	0	525.911546211149	526.011514921716	0.0999687105677367	stim01_sf1_pattern1_cont1_shape2.png	1	1	1	2	1	1	0	0	0	0	0	0	0	0	0	0	0	0	1	14
267.73388671875	0.0999962757659887	548319	347	13	stim13_sf2_pattern2_cont1_shape2.png	2	11	0	526.411535507641	526.511531783407	0.0999962757659887	stim13_sf2_pattern2_cont1_shape2.png	2	2	1	2	1	2	0	0	0	0	0	0	0	0	0	0	0	0	1	14
268.23388671875	0.0999948095313812	549343	348	7	stim07_sf1_pattern2_cont2_shape2.png	2	12	0	526.911530669069	527.011525478601	0.0999948095313812	stim07_sf1_pattern2_cont2_shape2.png	1	2	2	2	1	1	0	0	0	0	0	0	0	0	0	0	0	0	1	14
268.73388671875	0.100027066679104	550367	349	6	stim06_sf1_pattern2_cont2_shape1.png	2	13	0	527.411489761142	527.511516827821	0.100027066679104	stim06_sf1_pattern2_cont2_shape1.png	1	2	2	1	1	3	0	0	0	0	0	0	0	0	0	0	0	0	1	14
269.23388671875	0.0999786809579746	551391	350	15	stim15_sf2_pattern2_cont2_shape2.png	2	14	0	527.911530962316	528.011509643274	0.0999786809579746	stim15_sf2_pattern2_cont2_shape2.png	2	2	2	2	1	2	0	0	0	0	0	0	0	0	0	0	0	0	1	14
269.73388671875	0.0999951027779389	552415	351	14	stim14_sf2_pattern2_cont2_shape1.png	2	15	0	528.411507649196	528.511502751974	0.0999951027779389	stim14_sf2_pattern2_cont2_shape1.png	2	2	2	1	1	4	0	0	0	0	0	0	0	0	0	0	0	0	1	14
270.23388671875	0.0999904108302871	553439	352	5	stim05_sf1_pattern2_cont1_shape2.png	2	16	0	528.911503983611	529.011494394441	0.0999904108302871	stim05_sf1_pattern2_cont1_shape2.png	1	2	1	2	1	1	0	0	0	0	0	0	0	0	0	0	0	0	1	14
270.73388671875	0.0999895310897045	554463	353	11	stim11_sf2_pattern1_cont2_shape2.png	2	17	0	529.411497972052	529.511487503141	0.0999895310897045	stim11_sf2_pattern1_cont2_shape2.png	2	1	2	2	1	2	0	0	0	0	0	0	0	0	0	0	0	0	1	14
271.23388671875	0.0999915838174275	555487	354	2	stim02_sf1_pattern1_cont2_shape1.png	2	18	0	529.911492253739	530.011483837557	0.0999915838174275	stim02_sf1_pattern1_cont2_shape1.png	1	1	2	1	1	3	0	0	0	0	0	0	0	0	0	0	0	0	1	14
271.73388671875	0.0999936365442409	556511	355	0	stim00_sf1_pattern1_cont1_shape1.png	2	19	0	530.41146072971	530.511454366254	0.0999936365442409	stim00_sf1_pattern1_cont1_shape1.png	1	1	1	1	1	3	0	0	0	0	0	0	0	0	0	0	0	0	1	14
272.23388671875	0.0999719362825999	557535	356	10	stim10_sf2_pattern1_cont2_shape1.png	2	20	1	530.911475245425	531.011447181708	0.0999719362825999	stim10_sf2_pattern1_cont2_shape1.png	2	1	2	1	1	4	0	0	0	0	0	0	0	0	0	0	0	0	1	14
272.73388671875	0.0999760417371363	558559	357	10	stim10_sf2_pattern1_cont2_shape1.png	2	21	1	531.411469233866	531.511445275603	0.0999760417371363	stim10_sf2_pattern1_cont2_shape1.png	2	1	2	1	1	4	0	0	0	0	0	0	0	0	0	0	0	0	1	14
273.23388671875	0.100018855768212	559583	358	4	stim04_sf1_pattern2_cont1_shape1.png	2	22	2	531.911408971651	532.01142782742	0.100018855768212	stim04_sf1_pattern2_cont1_shape1.png	1	2	1	1	1	3	0	0	0	0	0	0	0	0	0	0	0	0	1	14
273.73388671875	0.100019735508795	560607	359	5	stim05_sf1_pattern2_cont1_shape2.png	2	23	2	532.411421141393	532.511440876901	0.100019735508795	stim05_sf1_pattern2_cont1_shape2.png	1	2	1	2	1	1	0	0	0	0	0	0	0	0	0	0	0	0	1	14
274.23388671875	0.0999889445956796	561631	360	14	stim14_sf2_pattern2_cont2_shape1.png	2	24	0	532.91142187451	533.011410819106	0.0999889445956796	stim14_sf2_pattern2_cont2_shape1.png	2	2	2	1	1	4	0	0	0	0	0	0	0	0	0	0	0	0	1	14
274.73388671875	0.0999745755034382	562655	361	8	stim08_sf2_pattern1_cont1_shape1.png	2	25	0	533.411406185806	533.51138076131	0.0999745755034382	stim08_sf2_pattern1_cont1_shape1.png	2	1	1	1	1	4	0	0	0	0	0	0	0	0	0	0	0	0	1	14
275.23388671875	0.0999951027788484	563679	362	12	stim12_sf2_pattern2_cont1_shape1.png	2	26	0	533.911408385157	534.011403487936	0.0999951027788484	stim12_sf2_pattern2_cont1_shape1.png	2	2	1	1	1	4	0	0	0	0	0	0	0	0	0	0	0	0	1	14
275.73388671875	0.0999965690125464	564703	363	15	stim15_sf2_pattern2_cont2_shape2.png	2	27	0	534.411387418012	534.511383987025	0.0999965690125464	stim15_sf2_pattern2_cont2_shape2.png	2	2	2	2	1	2	0	0	0	0	0	0	0	0	0	0	0	0	1	14
276.23388671875	0.0999880648560065	565727	364	3	stim03_sf1_pattern1_cont2_shape2.png	2	28	0	534.911393722818	535.011381787674	0.0999880648560065	stim03_sf1_pattern1_cont2_shape2.png	1	1	2	2	1	1	0	0	0	0	0	0	0	0	0	0	0	0	1	14
276.73388671875	0.0999983284928021	566751	365	7	stim07_sf1_pattern2_cont2_shape2.png	2	29	0	535.411380380089	535.511378708582	0.0999983284928021	stim07_sf1_pattern2_cont2_shape2.png	1	2	2	2	1	1	0	0	0	0	0	0	0	0	0	0	0	0	1	14
277.23388671875	0.0999971555065713	567775	366	9	stim09_sf2_pattern1_cont1_shape2.png	2	30	0	535.911393722818	536.011390878324	0.0999971555065713	stim09_sf2_pattern1_cont1_shape2.png	2	1	1	2	1	2	0	0	0	0	0	0	0	0	0	0	0	0	1	14
277.7421875	0.100001554208575	568816	367	1	stim01_sf1_pattern1_cont1_shape2.png	2	31	0	536.419704483479	536.519706037688	0.100001554208575	stim01_sf1_pattern1_cont1_shape2.png	1	1	1	2	1	1	0	0	0	0	0	0	0	0	0	0	0	0	1	14
278.2421875	0.099998914986827	569840	368	10	stim10_sf2_pattern1_cont2_shape1.png	2	32	0	536.919688208282	537.019687123269	0.099998914986827	stim10_sf2_pattern1_cont2_shape1.png	2	1	2	1	1	4	0	0	0	0	0	0	0	0	0	0	0	0	1	14
278.7421875	0.100003313688831	570864	369	6	stim06_sf1_pattern2_cont2_shape1.png	2	33	0	537.419647886849	537.519651200538	0.100003313688831	stim06_sf1_pattern2_cont2_shape1.png	1	2	2	1	1	3	0	0	0	0	0	0	0	0	0	0	0	0	1	14
279.2421875	0.0999986217402693	571888	370	13	stim13_sf2_pattern2_cont1_shape2.png	2	34	0	537.919646860485	538.019645482225	0.0999986217402693	stim13_sf2_pattern2_cont1_shape2.png	2	2	1	2	1	2	0	0	0	0	0	0	0	0	0	0	0	0	1	14
279.7421875	0.100008885377974	572912	371	4	stim04_sf1_pattern2_cont1_shape1.png	2	35	0	538.419637329965	538.519646215343	0.100008885377974	stim04_sf1_pattern2_cont1_shape1.png	1	2	1	1	1	3	0	0	0	0	0	0	0	0	0	0	0	0	1	14
280.2421875	0.100000674467992	573936	372	15	stim15_sf2_pattern2_cont2_shape2.png	2	36	0	538.919661522825	539.019662197293	0.100000674467992	stim15_sf2_pattern2_cont2_shape2.png	2	2	2	2	1	2	0	0	0	0	0	0	0	0	0	0	0	0	1	14
280.7421875	0.0999898243362622	574960	373	12	stim12_sf2_pattern2_cont1_shape1.png	2	37	0	539.419653165291	539.519642989628	0.0999898243362622	stim12_sf2_pattern2_cont1_shape1.png	2	2	1	1	1	4	0	0	0	0	0	0	0	0	0	0	0	0	1	14
281.24169921875	0.100003900181946	575983	374	9	stim09_sf2_pattern1_cont1_shape2.png	2	38	0	539.919643341524	540.019647241706	0.100003900181946	stim09_sf2_pattern1_cont1_shape2.png	2	1	1	2	1	2	0	0	0	0	0	0	0	0	0	0	0	0	1	14
281.74169921875	0.0999772147242766	577007	375	11	stim11_sf2_pattern1_cont2_shape2.png	2	39	0	540.419657270746	540.51963448547	0.0999772147242766	stim11_sf2_pattern1_cont2_shape2.png	2	1	2	2	1	2	0	0	0	0	0	0	0	0	0	0	0	0	1	14
282.24169921875	0.0999974487522195	578031	376	8	stim08_sf2_pattern1_cont1_shape1.png	2	40	0	540.919653018668	541.01965046742	0.0999974487522195	stim08_sf2_pattern1_cont1_shape1.png	2	1	1	1	1	4	0	0	0	0	0	0	0	0	0	0	0	0	1	14
282.74169921875	0.100012111092838	579055	377	10	stim10_sf2_pattern1_cont2_shape1.png	2	41	0	541.419644367887	541.51965647898	0.100012111092838	stim10_sf2_pattern1_cont2_shape1.png	2	1	2	1	1	4	0	0	0	0	0	0	0	0	0	0	0	0	1	14
283.24169921875	0.0999948095313812	580079	378	6	stim06_sf1_pattern2_cont2_shape1.png	2	42	0	541.919632491393	542.019627300924	0.0999948095313812	stim06_sf1_pattern2_cont2_shape1.png	1	2	2	1	1	3	0	0	0	0	0	0	0	0	0	0	0	0	1	14
283.74169921875	0.0999370399140389	581103	379	2	stim02_sf1_pattern1_cont2_shape1.png	2	43	0	542.419622960871	542.519560000786	0.0999370399140389	stim02_sf1_pattern1_cont2_shape1.png	1	1	2	1	1	3	0	0	0	0	0	0	0	0	0	0	0	0	1	14
284.24169921875	0.0999827864134204	582127	380	1	stim01_sf1_pattern1_cont1_shape2.png	2	44	0	542.919627506197	543.01961029261	0.0999827864134204	stim01_sf1_pattern1_cont1_shape2.png	1	1	1	2	1	1	0	0	0	0	0	0	0	0	0	0	0	0	1	14
284.74169921875	0.0999977419996867	583151	381	7	stim07_sf1_pattern2_cont2_shape2.png	2	45	0	543.419605659311	543.519603401311	0.0999977419996867	stim07_sf1_pattern2_cont2_shape2.png	1	2	2	2	1	1	0	0	0	0	0	0	0	0	0	0	0	0	1	14
285.24169921875	0.0999956892719638	584175	382	0	stim00_sf1_pattern1_cont1_shape1.png	2	46	0	543.919599354505	544.019595043777	0.0999956892719638	stim00_sf1_pattern1_cont1_shape1.png	1	1	1	1	1	3	0	0	0	0	0	0	0	0	0	0	0	0	1	14
285.74169921875	0.099998914986827	585199	383	4	stim04_sf1_pattern2_cont1_shape1.png	2	47	0	544.419587771257	544.519586686244	0.099998914986827	stim04_sf1_pattern2_cont1_shape1.png	1	2	1	1	1	3	0	0	0	0	0	0	0	0	0	0	0	0	1	14
286.24169921875	0.0999953960254061	586223	384	13	stim13_sf2_pattern2_cont1_shape2.png	2	48	0	544.919585865153	545.019581261178	0.0999953960254061	stim13_sf2_pattern2_cont1_shape2.png	2	2	1	2	1	2	0	0	0	0	0	0	0	0	0	0	0	0	1	14
286.74169921875	0.0999965690125464	587247	385	14	stim14_sf2_pattern2_cont2_shape1.png	2	49	0	545.419574868398	545.51957143741	0.0999965690125464	stim14_sf2_pattern2_cont2_shape1.png	2	2	2	1	1	4	0	0	0	0	0	0	0	0	0	0	0	0	1	14
287.24169921875	0.100000087973967	588271	386	3	stim03_sf1_pattern1_cont2_shape2.png	2	50	0	545.919567977098	546.019568065072	0.100000087973967	stim03_sf1_pattern1_cont2_shape2.png	1	1	2	2	1	1	0	0	0	0	0	0	0	0	0	0	0	0	1	14
287.74169921875	0.0999977419996867	589295	387	5	stim05_sf1_pattern2_cont1_shape2.png	2	51	0	546.419558739824	546.519556481824	0.0999977419996867	stim05_sf1_pattern2_cont1_shape2.png	1	2	1	2	1	1	0	0	0	0	0	0	0	0	0	0	0	0	1	14
288.24169921875	0.0999543414745858	590319	388	3	stim03_sf1_pattern1_cont2_shape2.png	2	52	0	546.919568563592	547.019522905067	0.0999543414745858	stim03_sf1_pattern1_cont2_shape2.png	1	1	2	2	1	1	0	0	0	0	0	0	0	0	0	0	0	0	1	14
288.74169921875	0.0999968622591041	591343	389	2	stim02_sf1_pattern1_cont2_shape1.png	2	53	0	547.419545836966	547.519542699225	0.0999968622591041	stim02_sf1_pattern1_cont2_shape1.png	1	1	2	1	1	3	0	0	0	0	0	0	0	0	0	0	0	0	1	14
289.24169921875	0.0999953960254061	592367	390	15	stim15_sf2_pattern2_cont2_shape2.png	2	54	0	547.919537772679	548.019533168705	0.0999953960254061	stim15_sf2_pattern2_cont2_shape2.png	2	2	2	2	1	2	0	0	0	0	0	0	0	0	0	0	0	0	1	14
289.74169921875	0.100001554207665	593391	391	14	stim14_sf2_pattern2_cont2_shape1.png	2	55	0	548.419525896184	548.519527450392	0.100001554207665	stim14_sf2_pattern2_cont2_shape1.png	2	2	2	1	1	4	0	0	0	0	0	0	0	0	0	0	0	0	1	14
290.24169921875	0.100001554208575	594415	392	1	stim01_sf1_pattern1_cont1_shape2.png	2	56	0	548.91951753865	549.019519092859	0.100001554208575	stim01_sf1_pattern1_cont1_shape2.png	1	1	1	2	1	1	0	0	0	0	0	0	0	0	0	0	0	0	1	14
290.74169921875	0.0999986217393598	595439	393	0	stim00_sf1_pattern1_cont1_shape1.png	2	57	0	549.419510940598	549.519509562338	0.0999986217393598	stim00_sf1_pattern1_cont1_shape1.png	1	1	1	1	1	3	0	0	0	0	0	0	0	0	0	0	0	0	1	14
291.24169921875	0.0999930500511255	596463	394	12	stim12_sf2_pattern2_cont1_shape1.png	2	58	0	549.919510500727	550.019503550779	0.0999930500511255	stim12_sf2_pattern2_cont1_shape1.png	2	2	1	1	1	4	0	0	0	0	0	0	0	0	0	0	0	0	1	14
291.74169921875	0.0999992082333847	597487	395	11	stim11_sf2_pattern1_cont2_shape2.png	2	59	0	550.419493639038	550.519492847271	0.0999992082333847	stim11_sf2_pattern1_cont2_shape2.png	2	1	2	2	1	2	0	0	0	0	0	0	0	0	0	0	0	0	1	14
292.24169921875	0.0999596199171719	598511	396	7	stim07_sf1_pattern2_cont2_shape2.png	2	60	0	550.919487627478	551.019447247395	0.0999596199171719	stim07_sf1_pattern2_cont2_shape2.png	1	2	2	2	1	1	0	0	0	0	0	0	0	0	0	0	0	0	1	14
292.74169921875	0.099957567189449	599535	397	4	stim04_sf1_pattern2_cont1_shape1.png	2	61	0	551.419486894361	551.519444461551	0.099957567189449	stim04_sf1_pattern2_cont1_shape1.png	1	2	1	1	1	3	0	0	0	0	0	0	0	0	0	0	0	0	1	14
293.24169921875	0.100014163819651	600559	398	10	stim10_sf2_pattern1_cont2_shape1.png	2	62	0	551.919431910588	552.019446074408	0.100014163819651	stim10_sf2_pattern1_cont2_shape1.png	2	1	2	1	1	4	0	0	0	0	0	0	0	0	0	0	0	0	1	14
293.74169921875	0.10000214070169	601583	399	9	stim09_sf2_pattern1_cont1_shape2.png	2	63	0	552.41942120708	552.519423347781	0.10000214070169	stim09_sf2_pattern1_cont1_shape2.png	2	1	1	2	1	2	0	0	0	0	0	0	0	0	0	0	0	0	1	14
294.24169921875	0.0999909973234026	602607	400	13	stim13_sf2_pattern2_cont1_shape2.png	2	64	0	552.91942076721	553.019411764533	0.0999909973234026	stim13_sf2_pattern2_cont1_shape2.png	2	2	1	2	1	2	0	0	0	0	0	0	0	0	0	0	0	0	1	14
294.74169921875	0.100037623563367	603631	401	6	stim06_sf1_pattern2_cont2_shape1.png	2	65	0	553.419409477208	553.519447100772	0.100037623563367	stim06_sf1_pattern2_cont2_shape1.png	1	2	2	1	1	3	0	0	0	0	0	0	0	0	0	0	0	0	1	14
295.24169921875	0.0999959825185215	604655	402	8	stim08_sf2_pattern1_cont1_shape1.png	2	66	0	553.919426045652	554.019422028171	0.0999959825185215	stim08_sf2_pattern1_cont1_shape1.png	2	1	1	1	1	4	0	0	0	0	0	0	0	0	0	0	0	0	1	14
295.74169921875	0.0999953960254061	605679	403	5	stim05_sf1_pattern2_cont1_shape2.png	2	67	0	554.419424432795	554.51941982882	0.0999953960254061	stim05_sf1_pattern2_cont1_shape2.png	1	2	1	2	1	1	0	0	0	0	0	0	0	0	0	0	0	0	1	14
296.24169921875	0.100006832650251	606703	404	2	stim02_sf1_pattern1_cont2_shape1.png	2	68	0	554.919414609028	555.019421441678	0.100006832650251	stim02_sf1_pattern1_cont2_shape1.png	1	1	2	1	1	3	0	0	0	0	0	0	0	0	0	0	0	0	1	14
296.74169921875	0.100018855768212	607727	405	4	stim04_sf1_pattern2_cont1_shape1.png	2	69	0	555.419400093311	555.519418949079	0.100018855768212	stim04_sf1_pattern2_cont1_shape1.png	1	2	1	1	1	3	0	0	0	0	0	0	0	0	0	0	0	0	1	14
297.24169921875	0.099997448753129	608751	406	5	stim05_sf1_pattern2_cont1_shape2.png	2	70	0	555.919417541495	556.019414990248	0.099997448753129	stim05_sf1_pattern2_cont1_shape2.png	1	2	1	2	1	1	0	0	0	0	0	0	0	0	0	0	0	0	1	14
297.74169921875	0.0999968622591041	609775	407	11	stim11_sf2_pattern1_cont2_shape2.png	2	71	0	556.41941299617	556.519409858429	0.0999968622591041	stim11_sf2_pattern1_cont2_shape2.png	2	1	2	2	1	2	0	0	0	0	0	0	0	0	0	0	0	0	1	14
298.24169921875	0.0999898243362622	610799	408	14	stim14_sf2_pattern2_cont2_shape1.png	2	72	0	556.919405518377	557.019395342713	0.0999898243362622	stim14_sf2_pattern2_cont2_shape1.png	2	2	2	1	1	4	0	0	0	0	0	0	0	0	0	0	0	0	1	14
298.7412109375	0.0999971555065713	611822	409	10	stim10_sf2_pattern1_cont2_shape1.png	2	73	0	557.419388949933	557.519386105439	0.0999971555065713	stim10_sf2_pattern1_cont2_shape1.png	2	1	2	1	1	4	0	0	0	0	0	0	0	0	0	0	0	0	1	14
299.2412109375	0.099942318356625	612846	410	15	stim15_sf2_pattern2_cont2_shape2.png	2	74	0	557.919378832918	558.019321151275	0.099942318356625	stim15_sf2_pattern2_cont2_shape2.png	2	2	2	2	1	2	0	0	0	0	0	0	0	0	0	0	0	0	1	14
299.7412109375	0.0999695903074098	613870	411	7	stim07_sf1_pattern2_cont2_shape2.png	2	75	0	558.419375753828	558.519345344135	0.0999695903074098	stim07_sf1_pattern2_cont2_shape2.png	1	2	2	2	1	1	0	0	0	0	0	0	0	0	0	0	0	0	1	14
300.2412109375	0.0999992082333847	614894	412	6	stim06_sf1_pattern2_cont2_shape1.png	2	76	0	558.91936593006	559.019365138293	0.0999992082333847	stim06_sf1_pattern2_cont2_shape1.png	1	2	2	1	1	3	0	0	0	0	0	0	0	0	0	0	0	0	1	14
300.7412109375	0.0999956892719638	615918	413	1	stim01_sf1_pattern1_cont1_shape2.png	2	77	0	559.41935903876	559.519354728032	0.0999956892719638	stim01_sf1_pattern1_cont1_shape2.png	1	1	1	2	1	1	0	0	0	0	0	0	0	0	0	0	0	0	1	14
301.2412109375	0.0999953960254061	616942	414	0	stim00_sf1_pattern1_cont1_shape1.png	2	78	0	559.919353906942	560.019349302967	0.0999953960254061	stim00_sf1_pattern1_cont1_shape1.png	1	1	1	1	1	3	0	0	0	0	0	0	0	0	0	0	0	0	1	14
301.7412109375	0.0999986217402693	617966	415	13	stim13_sf2_pattern2_cont1_shape2.png	2	79	0	560.419341150706	560.519339772446	0.0999986217402693	stim13_sf2_pattern2_cont1_shape2.png	2	2	1	2	1	2	0	0	0	0	0	0	0	0	0	0	0	0	1	14
302.2412109375	0.100005952909669	618990	416	9	stim09_sf2_pattern1_cont1_shape2.png	2	80	0	560.91932663499	561.0193325879	0.100005952909669	stim09_sf2_pattern1_cont1_shape2.png	2	1	1	2	1	2	0	0	0	0	0	0	0	0	0	0	0	0	1	14
302.7412109375	0.0999974487522195	620014	417	8	stim08_sf2_pattern1_cont1_shape1.png	2	81	0	561.419328541095	561.519325989847	0.0999974487522195	stim08_sf2_pattern1_cont1_shape1.png	2	1	1	1	1	4	0	0	0	0	0	0	0	0	0	0	0	0	1	14
303.2412109375	0.100035864082201	621038	418	3	stim03_sf1_pattern1_cont2_shape2.png	2	82	0	561.919281181737	562.01931704582	0.100035864082201	stim03_sf1_pattern1_cont2_shape2.png	1	1	2	2	1	1	0	0	0	0	0	0	0	0	0	0	0	0	1	14
303.7412109375	0.0999968622591041	622062	419	12	stim12_sf2_pattern2_cont1_shape1.png	2	83	0	562.419311826027	562.519308688286	0.0999968622591041	stim12_sf2_pattern2_cont1_shape1.png	2	2	1	1	1	4	0	0	0	0	0	0	0	0	0	0	0	0	1	14
304.2412109375	0.100001260961108	623086	420	15	stim15_sf2_pattern2_cont2_shape2.png	2	84	0	562.919302882	563.019304142961	0.100001260961108	stim15_sf2_pattern2_cont2_shape2.png	2	2	2	2	1	2	0	0	0	0	0	0	0	0	0	0	0	0	1	14
304.7412109375	0.0999980352462444	624110	421	14	stim14_sf2_pattern2_cont2_shape1.png	2	85	0	563.419297750182	563.519295785428	0.0999980352462444	stim14_sf2_pattern2_cont2_shape1.png	2	2	2	1	1	4	0	0	0	0	0	0	0	0	0	0	0	0	1	14
305.2412109375	0.100005366416553	625134	422	6	stim06_sf1_pattern2_cont2_shape1.png	2	86	0	563.919275023555	564.019280389972	0.100005366416553	stim06_sf1_pattern2_cont2_shape1.png	1	2	2	1	1	3	0	0	0	0	0	0	0	0	0	0	0	0	1	14
305.7412109375	0.099994516285733	626158	423	8	stim08_sf2_pattern1_cont1_shape1.png	2	87	0	564.419280155374	564.519274671659	0.099994516285733	stim08_sf2_pattern1_cont1_shape1.png	2	1	1	1	1	4	0	0	0	0	0	0	0	0	0	0	0	0	1	14
306.2412109375	0.0999986217402693	627182	424	3	stim03_sf1_pattern1_cont2_shape2.png	2	88	0	564.919272970827	565.019271592568	0.0999986217402693	stim03_sf1_pattern1_cont2_shape2.png	1	1	2	2	1	1	0	0	0	0	0	0	0	0	0	0	0	0	1	14
306.7412109375	0.0999968622591041	628206	425	9	stim09_sf2_pattern1_cont1_shape2.png	2	89	0	565.419263440307	565.519260302566	0.0999968622591041	stim09_sf2_pattern1_cont1_shape2.png	2	1	1	2	1	2	0	0	0	0	0	0	0	0	0	0	0	0	1	14
307.2412109375	0.100007712389925	629230	426	13	stim13_sf2_pattern2_cont1_shape2.png	2	90	0	565.919233675758	566.019241388148	0.100007712389925	stim13_sf2_pattern2_cont1_shape2.png	2	2	1	2	1	2	0	0	0	0	0	0	0	0	0	0	0	0	1	14
307.7412109375	0.0991789969612	630254	427	2	stim02_sf1_pattern1_cont2_shape1.png	2	91	0	566.420070748721	566.519249745682	0.0991789969612	stim02_sf1_pattern1_cont2_shape1.png	1	1	2	1	1	3	0	0	0	0	0	0	0	0	0	0	0	0	1	14
308.2412109375	0.10001797602763	631278	428	5	stim05_sf1_pattern2_cont1_shape2.png	2	92	0	566.919191154973	567.019209131001	0.10001797602763	stim05_sf1_pattern2_cont1_shape2.png	1	2	1	2	1	1	0	0	0	0	0	0	0	0	0	0	0	0	1	14
308.7412109375	0.0999948095322907	632302	429	1	stim01_sf1_pattern1_cont1_shape2.png	2	93	0	567.41919188809	567.519186697622	0.0999948095322907	stim01_sf1_pattern1_cont1_shape2.png	1	1	1	2	1	1	0	0	0	0	0	0	0	0	0	0	0	0	1	14
309.2412109375	0.100007419143367	633326	430	4	stim04_sf1_pattern2_cont1_shape1.png	2	94	0	567.919185583284	568.019193002428	0.100007419143367	stim04_sf1_pattern2_cont1_shape1.png	1	2	1	1	1	3	0	0	0	0	0	0	0	0	0	0	0	0	1	14
309.7412109375	0.0999757484896691	634350	431	11	stim11_sf2_pattern1_cont2_shape2.png	2	95	0	568.419196873286	568.519172621775	0.0999757484896691	stim11_sf2_pattern1_cont2_shape2.png	2	1	2	2	1	2	0	0	0	0	0	0	0	0	0	0	0	0	1	14
310.2412109375	0.0999977419996867	635374	432	0	stim00_sf1_pattern1_cont1_shape1.png	2	96	0	568.919189102246	569.019186844245	0.0999977419996867	stim00_sf1_pattern1_cont1_shape1.png	1	1	1	1	1	3	0	0	0	0	0	0	0	0	0	0	0	0	1	14
310.7412109375	0.0999839594005607	636398	433	12	stim12_sf2_pattern2_cont1_shape1.png	2	97	0	569.419174879776	569.519158839176	0.0999839594005607	stim12_sf2_pattern2_cont1_shape1.png	2	2	1	1	1	4	0	0	0	0	0	0	0	0	0	0	0	0	1	14
311.2412109375	0.0999742822568805	637422	434	10	stim10_sf2_pattern1_cont2_shape1.png	2	98	0	569.919202298351	570.019176580608	0.0999742822568805	stim10_sf2_pattern1_cont2_shape1.png	2	1	2	1	1	4	0	0	0	0	0	0	0	0	0	0	0	0	1	14
311.7412109375	0.0999995014808519	638446	435	7	stim07_sf1_pattern2_cont2_shape2.png	2	99	0	570.419174586529	570.51917408801	0.0999995014808519	stim07_sf1_pattern2_cont2_shape2.png	1	2	2	2	1	1	0	0	0	0	0	0	0	0	0	0	0	0	1	14
312.2412109375	0.100005952909669	639470	436	13	stim13_sf2_pattern2_cont1_shape2.png	2	100	0	570.919166522242	571.019172475152	0.100005952909669	stim13_sf2_pattern2_cont1_shape2.png	2	2	1	2	1	2	0	0	0	0	0	0	0	0	0	0	0	0	1	14
312.7412109375	0.0999948095322907	640494	437	8	stim08_sf2_pattern1_cont1_shape1.png	2	101	0	571.419187196141	571.519182005673	0.0999948095322907	stim08_sf2_pattern1_cont1_shape1.png	2	1	1	1	1	4	0	0	0	0	0	0	0	0	0	0	0	0	1	14
313.2412109375	0.100000087973967	641518	438	7	stim07_sf1_pattern2_cont2_shape2.png	2	102	0	571.919172680426	572.0191727684	0.100000087973967	stim07_sf1_pattern2_cont2_shape2.png	1	2	2	2	1	1	0	0	0	0	0	0	0	0	0	0	0	0	1	14
313.7412109375	0.100020028756262	642542	439	2	stim02_sf1_pattern1_cont2_shape1.png	2	103	0	572.419136757693	572.519156786449	0.100020028756262	stim02_sf1_pattern1_cont2_shape1.png	1	1	2	1	1	3	0	0	0	0	0	0	0	0	0	0	0	0	1	14
314.2412109375	0.0999860121282836	643566	440	14	stim14_sf2_pattern2_cont2_shape1.png	2	104	0	572.919149513928	573.019135526057	0.0999860121282836	stim14_sf2_pattern2_cont2_shape1.png	2	2	2	1	1	4	0	0	0	0	0	0	0	0	0	0	0	0	1	14
314.7412109375	0.0999965690125464	644590	441	6	stim06_sf1_pattern2_cont2_shape1.png	2	105	0	573.419156991722	573.519153560735	0.0999965690125464	stim06_sf1_pattern2_cont2_shape1.png	1	2	2	1	1	3	0	0	0	0	0	0	0	0	0	0	0	0	1	14
315.2412109375	0.100003606935388	645614	442	0	stim00_sf1_pattern1_cont1_shape1.png	2	106	1	573.91913485159	574.019138458525	0.100003606935388	stim00_sf1_pattern1_cont1_shape1.png	1	1	1	1	1	3	0	0	0	0	0	0	0	0	0	0	0	0	1	14
315.7412109375	0.0999716430351327	646638	443	0	stim00_sf1_pattern1_cont1_shape1.png	2	107	1	574.41912796029	574.519099603325	0.0999716430351327	stim00_sf1_pattern1_cont1_shape1.png	1	1	1	1	1	3	0	0	0	0	0	0	0	0	0	0	0	0	1	14
316.24072265625	0.0999766282302517	647661	444	8	stim08_sf2_pattern1_cont1_shape1.png	2	108	2	574.919135144836	575.019111773066	0.0999766282302517	stim08_sf2_pattern1_cont1_shape1.png	2	1	1	1	1	4	0	0	0	0	0	0	0	0	0	0	0	0	1	14
316.74072265625	0.0999930500511255	648685	445	2	stim02_sf1_pattern1_cont2_shape1.png	2	109	2	575.419117110158	575.519110160209	0.0999930500511255	stim02_sf1_pattern1_cont2_shape1.png	1	1	2	1	1	3	0	0	0	0	0	0	0	0	0	0	0	0	1	14
317.24072265625	0.0999769214777189	649709	446	10	stim10_sf2_pattern1_cont2_shape1.png	2	110	0	575.91910464717	576.019081568647	0.0999769214777189	stim10_sf2_pattern1_cont2_shape1.png	2	1	2	1	1	4	0	0	0	0	0	0	0	0	0	0	0	0	1	14
317.74072265625	0.0999707632945501	650733	447	5	stim05_sf1_pattern2_cont1_shape2.png	2	111	0	576.419098342364	576.519069105659	0.0999707632945501	stim05_sf1_pattern2_cont1_shape2.png	1	2	1	2	1	1	0	0	0	0	0	0	0	0	0	0	0	0	1	14
318.24072265625	0.0999992082342942	651757	448	4	stim04_sf1_pattern2_cont1_shape1.png	2	112	0	576.919088811843	577.019088020077	0.0999992082342942	stim04_sf1_pattern2_cont1_shape1.png	1	2	1	1	1	3	0	0	0	0	0	0	0	0	0	0	0	0	1	14
318.74072265625	0.0999951027779389	652781	449	9	stim09_sf2_pattern1_cont1_shape2.png	2	113	0	577.419083386778	577.519078489556	0.0999951027779389	stim09_sf2_pattern1_cont1_shape2.png	2	1	1	2	1	2	0	0	0	0	0	0	0	0	0	0	0	0	1	14
