onset	duration	onsetsample	eventnumber	stimnumber	stimname	blocknumber	trialnumber	istarget	time_stimon	time_stimoff	stimdur	stimfilename	spatial_freq	pattern	contrast	shape	is_fast_stream	category	ppt_1_response	ppt_1_keypressed	ppt_1_rt	ppt_1_correct	ppt_2_response	ppt_2_keypressed	ppt_2_rt	ppt_2_correct	button1	button2	button3	button4	task_part_number	subjectnr
148.5458984375	0.0999927568482235	304222	0	1	stim01_sf1_pattern1_cont1_shape2.png	0	0	0	134.415855819609	134.515848576457	0.0999927568482235	stim01_sf1_pattern1_cont1_shape2.png	1	1	1	2	1	4	0	0	0	0	0	0	0	0	0	0	0	0	1	2
149.05419921875	0.0999936365806207	305263	1	12	stim12_sf2_pattern2_cont1_shape1.png	0	1	0	134.924164478814	135.024158115395	0.0999936365806207	stim12_sf2_pattern2_cont1_shape1.png	2	2	1	1	1	1	0	0	0	0	0	0	0	0	0	0	0	0	1	2
149.55419921875	0.103838665945659	306287	2	7	stim07_sf1_pattern2_cont2_shape2.png	0	2	0	135.445285894883	135.549124560828	0.103838665945659	stim07_sf1_pattern2_cont2_shape2.png	1	2	2	2	1	2	0	0	0	0	0	0	0	0	0	0	0	0	1	2
150.0791015625	0.0999930500911432	307362	3	0	stim00_sf1_pattern1_cont1_shape1.png	0	3	0	135.949124032988	136.049117083079	0.0999930500911432	stim00_sf1_pattern1_cont1_shape1.png	1	1	1	1	1	3	0	0	0	0	0	0	0	0	0	0	0	0	1	2
150.5791015625	0.100026480029555	308386	4	3	stim03_sf1_pattern1_cont2_shape2.png	0	4	0	136.449104825435	136.549131305464	0.100026480029555	stim03_sf1_pattern1_cont2_shape2.png	1	1	2	2	1	4	0	0	0	0	0	0	0	0	0	0	0	0	1	2
151.0791015625	0.100020028638028	309410	5	15	stim15_sf2_pattern2_cont2_shape2.png	0	5	0	136.94909588146	137.049115910098	0.100020028638028	stim15_sf2_pattern2_cont2_shape2.png	2	2	2	2	1	2	0	0	0	0	0	0	0	0	0	0	0	0	1	2
151.5791015625	0.100015043472013	310434	6	14	stim14_sf2_pattern2_cont2_shape1.png	0	6	0	137.449084005035	137.549099048507	0.100015043472013	stim14_sf2_pattern2_cont2_shape1.png	2	2	2	1	1	1	0	0	0	0	0	0	0	0	0	0	0	0	1	2
152.0791015625	0.0999344010779168	311458	7	6	stim06_sf1_pattern2_cont2_shape1.png	0	7	0	137.949157462925	138.049091864003	0.0999344010779168	stim06_sf1_pattern2_cont2_shape1.png	1	2	2	1	1	1	0	0	0	0	0	0	0	0	0	0	0	0	1	2
152.5791015625	0.100008298835746	312482	8	11	stim11_sf2_pattern1_cont2_shape2.png	0	8	0	138.449074034703	138.549082333539	0.100008298835746	stim11_sf2_pattern1_cont2_shape2.png	2	1	2	2	1	4	0	0	0	0	0	0	0	0	0	0	0	0	1	2
153.0791015625	0.0999924636016658	313506	9	13	stim13_sf2_pattern2_cont1_shape2.png	0	9	0	138.949084738148	139.049077201749	0.0999924636016658	stim13_sf2_pattern2_cont1_shape2.png	2	2	1	2	1	2	0	0	0	0	0	0	0	0	0	0	0	0	1	2
153.5791015625	0.0999912906227109	314530	10	8	stim08_sf2_pattern1_cont1_shape1.png	0	10	0	139.449072861722	139.549064152345	0.0999912906227109	stim08_sf2_pattern1_cont1_shape1.png	2	1	1	1	1	3	0	0	0	0	0	0	0	0	0	0	0	0	1	2
154.0791015625	0.100003900159209	315554	11	2	stim02_sf1_pattern1_cont2_shape1.png	0	11	0	139.949043977083	140.049047877243	0.100003900159209	stim02_sf1_pattern1_cont2_shape1.png	1	1	2	1	1	3	0	0	0	0	0	0	0	0	0	0	0	0	1	2
154.5791015625	0.0999956892974296	316578	12	5	stim05_sf1_pattern2_cont1_shape2.png	0	12	0	140.449049988607	140.549045677904	0.0999956892974296	stim05_sf1_pattern2_cont1_shape2.png	1	2	1	2	1	2	0	0	0	0	0	0	0	0	0	0	0	0	1	2
155.0791015625	0.0999833730038517	317602	13	9	stim09_sf2_pattern1_cont1_shape2.png	0	13	0	140.949043683839	141.049027056843	0.0999833730038517	stim09_sf2_pattern1_cont1_shape2.png	2	1	1	2	1	4	0	0	0	0	0	0	0	0	0	0	0	0	1	2
155.5791015625	0.0999927568464045	318626	14	10	stim10_sf2_pattern1_cont2_shape1.png	0	14	0	141.449023889796	141.549016646642	0.0999927568464045	stim10_sf2_pattern1_cont2_shape1.png	2	1	2	1	1	3	0	0	0	0	0	0	0	0	0	0	0	0	1	2
156.0791015625	0.0999974487676809	319650	15	4	stim04_sf1_pattern2_cont1_shape1.png	0	15	0	141.949020517477	142.049017966245	0.0999974487676809	stim04_sf1_pattern2_cont1_shape1.png	1	2	1	1	1	1	0	0	0	0	0	0	0	0	0	0	0	0	1	2
156.5791015625	0.0999962757869071	320674	16	9	stim09_sf2_pattern1_cont1_shape2.png	0	16	0	142.448997790985	142.548994066772	0.0999962757869071	stim09_sf2_pattern1_cont1_shape2.png	2	1	1	2	1	4	0	0	0	0	0	0	0	0	0	0	0	0	1	2
157.0791015625	0.0999930500929622	321698	17	15	stim15_sf2_pattern2_cont2_shape2.png	0	17	0	142.948988553764	143.048981603857	0.0999930500929622	stim15_sf2_pattern2_cont2_shape2.png	2	2	2	2	1	2	0	0	0	0	0	0	0	0	0	0	0	0	1	2
157.5791015625	0.0999953960526909	322722	18	13	stim13_sf2_pattern2_cont1_shape2.png	0	18	0	143.44897550436	143.548970900412	0.0999953960526909	stim13_sf2_pattern2_cont1_shape2.png	2	2	1	2	1	2	0	0	0	0	0	0	0	0	0	0	0	0	1	2
158.0791015625	0.0999692972400226	323746	19	5	stim05_sf1_pattern2_cont1_shape2.png	0	19	0	143.948966560385	144.048935857625	0.0999692972400226	stim05_sf1_pattern2_cont1_shape2.png	1	2	1	2	1	2	0	0	0	0	0	0	0	0	0	0	0	0	1	2
158.5791015625	0.0999974487694999	324770	20	6	stim06_sf1_pattern2_cont2_shape1.png	0	20	0	144.448952631243	144.548950080012	0.0999974487694999	stim06_sf1_pattern2_cont2_shape1.png	1	2	2	1	1	1	0	0	0	0	0	0	0	0	0	0	0	0	1	2
159.0791015625	0.0999956892974296	325794	21	10	stim10_sf2_pattern1_cont2_shape1.png	0	21	0	144.948944567004	145.048940256302	0.0999956892974296	stim10_sf2_pattern1_cont2_shape1.png	2	1	2	1	1	3	0	0	0	0	0	0	0	0	0	0	0	0	1	2
159.5791015625	0.0999942230719171	326818	22	4	stim04_sf1_pattern2_cont1_shape1.png	0	22	0	145.448935916274	145.548930139346	0.0999942230719171	stim04_sf1_pattern2_cont1_shape1.png	1	2	1	1	1	1	0	0	0	0	0	0	0	0	0	0	0	0	1	2
160.0791015625	0.0999880649269471	327842	23	14	stim14_sf2_pattern2_cont2_shape1.png	0	23	0	145.948929025015	146.048917089942	0.0999880649269471	stim14_sf2_pattern2_cont2_shape1.png	2	2	2	1	1	1	0	0	0	0	0	0	0	0	0	0	0	0	1	2
160.5791015625	0.100003313669731	328866	24	11	stim11_sf2_pattern1_cont2_shape2.png	0	24	0	146.448910110708	146.548913424378	0.100003313669731	stim11_sf2_pattern1_cont2_shape2.png	2	1	2	2	1	4	0	0	0	0	0	0	0	0	0	0	0	0	1	2
161.0791015625	0.0999953960526909	329890	25	0	stim00_sf1_pattern1_cont1_shape1.png	0	25	0	146.948900286998	147.04889568305	0.0999953960526909	stim00_sf1_pattern1_cont1_shape1.png	1	1	1	1	1	3	0	0	0	0	0	0	0	0	0	0	0	0	1	2
161.5791015625	0.0999942230719171	330914	26	1	stim01_sf1_pattern1_cont1_shape2.png	0	26	0	147.448891049778	147.54888527285	0.0999942230719171	stim01_sf1_pattern1_cont1_shape2.png	1	1	1	2	1	4	0	0	0	0	0	0	0	0	0	0	0	0	1	2
162.0791015625	0.0999959825439873	331938	27	2	stim02_sf1_pattern1_cont2_shape1.png	0	27	0	147.948880932823	148.048876915367	0.0999959825439873	stim02_sf1_pattern1_cont2_shape1.png	1	1	2	1	1	3	0	0	0	0	0	0	0	0	0	0	0	0	1	2
162.5791015625	0.100022667844314	332962	28	8	stim08_sf2_pattern1_cont1_shape1.png	0	28	1	148.448842664342	148.548865332186	0.100022667844314	stim08_sf2_pattern1_cont1_shape1.png	2	1	1	1	1	3	0	0	0	0	0	0	0	0	0	0	0	0	1	2
163.0791015625	0.0999915838674497	333986	29	8	stim08_sf2_pattern1_cont1_shape1.png	0	29	1	148.948861578649	149.048853162516	0.0999915838674497	stim08_sf2_pattern1_cont1_shape1.png	2	1	1	1	1	3	0	0	0	0	0	0	0	0	0	0	0	0	1	2
163.5791015625	0.0999989149931935	335010	30	11	stim11_sf2_pattern1_cont2_shape2.png	0	30	2	149.448843837323	149.548842752316	0.0999989149931935	stim11_sf2_pattern1_cont2_shape2.png	2	1	2	2	1	4	0	0	0	0	0	0	0	0	0	0	0	0	1	2
164.0791015625	0.0999995014826709	336034	31	9	stim09_sf2_pattern1_cont1_shape2.png	0	31	2	149.948831960897	150.04883146238	0.0999995014826709	stim09_sf2_pattern1_cont1_shape2.png	2	1	1	2	1	4	0	0	0	0	0	0	0	0	0	0	0	0	1	2
164.5791015625	0.0999945163166558	337058	32	8	stim08_sf2_pattern1_cont1_shape1.png	0	32	0	150.448824776393	150.54881929271	0.0999945163166558	stim08_sf2_pattern1_cont1_shape1.png	2	1	1	1	1	3	0	0	0	0	0	0	0	0	0	0	0	0	1	2
165.07861328125	0.0999977420124196	338081	33	3	stim03_sf1_pattern1_cont2_shape2.png	0	33	0	150.948811433742	151.048809175754	0.0999977420124196	stim03_sf1_pattern1_cont2_shape2.png	1	1	2	2	1	4	0	0	0	0	0	0	0	0	0	0	0	0	1	2
165.57861328125	0.100016216452786	339105	34	7	stim07_sf1_pattern2_cont2_shape2.png	0	34	0	151.448777857182	151.548794073635	0.100016216452786	stim07_sf1_pattern2_cont2_shape2.png	1	2	2	2	1	2	0	0	0	0	0	0	0	0	0	0	0	0	1	2
166.07861328125	0.099973989161299	340129	35	12	stim12_sf2_pattern2_cont1_shape1.png	0	35	0	151.948790026852	152.048764016014	0.099973989161299	stim12_sf2_pattern2_cont1_shape1.png	2	2	1	1	1	1	0	0	0	0	0	0	0	0	0	0	0	0	1	2
166.57861328125	0.0999857189635804	341153	36	2	stim02_sf1_pattern1_cont2_shape1.png	0	36	0	152.448777563937	152.548763282901	0.0999857189635804	stim02_sf1_pattern1_cont2_shape1.png	1	1	2	1	1	3	0	0	0	0	0	0	0	0	0	0	0	0	1	2
167.07861328125	0.0999669512802939	342177	37	0	stim00_sf1_pattern1_cont1_shape1.png	0	37	0	152.948776830824	153.048743782105	0.0999669512802939	stim00_sf1_pattern1_cont1_shape1.png	1	1	1	1	1	3	0	0	0	0	0	0	0	0	0	0	0	0	1	2
167.57861328125	0.0999854257206607	343201	38	14	stim14_sf2_pattern2_cont2_shape1.png	0	38	0	153.448760555722	153.548745981443	0.0999854257206607	stim14_sf2_pattern2_cont2_shape1.png	2	2	2	1	1	1	0	0	0	0	0	0	0	0	0	0	0	0	1	2
168.07861328125	0.0999798540633492	344225	39	11	stim11_sf2_pattern1_cont2_shape2.png	0	39	0	153.948754837444	154.048734691507	0.0999798540633492	stim11_sf2_pattern1_cont2_shape2.png	2	1	2	2	1	4	0	0	0	0	0	0	0	0	0	0	0	0	1	2
168.57861328125	0.0999951028079522	345249	40	8	stim08_sf2_pattern1_cont1_shape1.png	0	40	0	154.448742961018	154.548738063826	0.0999951028079522	stim08_sf2_pattern1_cont1_shape1.png	2	1	1	1	1	3	0	0	0	0	0	0	0	0	0	0	0	0	1	2
169.07861328125	0.0999924636016658	346273	41	7	stim07_sf1_pattern2_cont2_shape2.png	0	41	0	154.948733137307	155.048725600909	0.0999924636016658	stim07_sf1_pattern2_cont2_shape2.png	1	2	2	2	1	2	0	0	0	0	0	0	0	0	0	0	0	0	1	2
169.57861328125	0.0999646053187462	347297	42	4	stim04_sf1_pattern2_cont1_shape1.png	0	42	0	155.448729471746	155.548694077064	0.0999646053187462	stim04_sf1_pattern2_cont1_shape1.png	1	2	1	1	1	1	0	0	0	0	0	0	0	0	0	0	0	0	1	2
170.07861328125	0.0999951028079522	348321	43	12	stim12_sf2_pattern2_cont1_shape1.png	0	43	0	155.948714956114	156.048710058922	0.0999951028079522	stim12_sf2_pattern2_cont1_shape1.png	2	2	1	1	1	1	0	0	0	0	0	0	0	0	0	0	0	0	1	2
170.57861328125	0.0999971555229422	349345	44	6	stim06_sf1_pattern2_cont2_shape1.png	0	44	0	156.448695162071	156.548692317594	0.0999971555229422	stim06_sf1_pattern2_cont2_shape1.png	1	2	2	1	1	1	0	0	0	0	0	0	0	0	0	0	0	0	1	2
171.07861328125	0.100002433933696	350369	45	5	stim05_sf1_pattern2_cont1_shape2.png	0	45	0	156.948682992401	157.048685426334	0.100002433933696	stim05_sf1_pattern2_cont1_shape2.png	1	2	1	2	1	2	0	0	0	0	0	0	0	0	0	0	0	0	1	2
171.57861328125	0.0999877716803894	351393	46	13	stim13_sf2_pattern2_cont1_shape2.png	0	46	0	157.448680793063	157.548668564743	0.0999877716803894	stim13_sf2_pattern2_cont1_shape2.png	2	2	1	2	1	2	0	0	0	0	0	0	0	0	0	0	0	0	1	2
172.07861328125	0.100002727180254	352417	47	9	stim09_sf2_pattern1_cont1_shape2.png	0	47	0	157.948663931471	158.048666658651	0.100002727180254	stim09_sf2_pattern1_cont1_shape2.png	2	1	1	2	1	4	0	0	0	0	0	0	0	0	0	0	0	0	1	2
172.57861328125	0.0999930500911432	353441	48	3	stim03_sf1_pattern1_cont2_shape2.png	0	48	0	158.448654107762	158.548647157853	0.0999930500911432	stim03_sf1_pattern1_cont2_shape2.png	1	1	2	2	1	4	0	0	0	0	0	0	0	0	0	0	0	0	1	2
173.07861328125	0.0999953960526909	354465	49	1	stim01_sf1_pattern1_cont1_shape2.png	0	49	0	158.948637246171	159.048632642223	0.0999953960526909	stim01_sf1_pattern1_cont1_shape2.png	1	1	1	2	1	4	0	0	0	0	0	0	0	0	0	0	0	0	1	2
173.57861328125	0.0999930500911432	355489	50	3	stim03_sf1_pattern1_cont2_shape2.png	0	50	1	159.448631821137	159.548624871228	0.0999930500911432	stim03_sf1_pattern1_cont2_shape2.png	1	1	2	2	1	4	0	0	0	0	0	0	0	0	0	0	0	0	1	2
174.07861328125	0.100008592080485	356513	51	3	stim03_sf1_pattern1_cont2_shape2.png	0	51	1	159.948617305505	160.048625897585	0.100008592080485	stim03_sf1_pattern1_cont2_shape2.png	1	1	2	2	1	4	0	0	0	0	0	0	0	0	0	0	0	0	1	2
174.57861328125	0.0999431984291732	357537	52	9	stim09_sf2_pattern1_cont1_shape2.png	0	52	2	160.448612466962	160.548555665391	0.0999431984291732	stim09_sf2_pattern1_cont1_shape2.png	2	1	1	2	1	4	0	0	0	0	0	0	0	0	0	0	0	0	1	2
175.07861328125	0.0999965690334648	358561	53	4	stim04_sf1_pattern2_cont1_shape1.png	0	53	2	160.9485997108	161.048596279834	0.0999965690334648	stim04_sf1_pattern2_cont1_shape1.png	1	2	1	1	1	1	0	0	0	0	0	0	0	0	0	0	0	0	1	2
175.57861328125	0.0999997947274096	359585	54	10	stim10_sf2_pattern1_cont2_shape1.png	0	54	0	161.448588127621	161.548587922349	0.0999997947274096	stim10_sf2_pattern1_cont2_shape1.png	2	1	2	1	1	3	0	0	0	0	0	0	0	0	0	0	0	0	1	2
176.07861328125	0.0999977420142386	360609	55	15	stim15_sf2_pattern2_cont2_shape2.png	0	55	0	161.948576837685	162.0485745797	0.0999977420142386	stim15_sf2_pattern2_cont2_shape2.png	2	2	2	2	1	2	0	0	0	0	0	0	0	0	0	0	0	0	1	2
176.57861328125	0.0999933433358819	361633	56	0	stim00_sf1_pattern1_cont1_shape1.png	0	56	0	162.448570239672	162.548563583008	0.0999933433358819	stim00_sf1_pattern1_cont1_shape1.png	1	1	1	1	1	3	0	0	0	0	0	0	0	0	0	0	0	0	1	2
177.07861328125	0.0999977420124196	362657	57	14	stim14_sf2_pattern2_cont2_shape1.png	0	57	0	162.948555137551	163.048552879563	0.0999977420124196	stim14_sf2_pattern2_cont2_shape1.png	2	2	2	1	1	1	0	0	0	0	0	0	0	0	0	0	0	0	1	2
177.57861328125	0.099998328503716	363681	58	12	stim12_sf2_pattern2_cont1_shape1.png	0	58	0	163.448545607085	163.548543935589	0.099998328503716	stim12_sf2_pattern2_cont1_shape1.png	2	2	1	1	1	1	0	0	0	0	0	0	0	0	0	0	0	0	1	2
178.07861328125	0.0999927568464045	364705	59	7	stim07_sf1_pattern2_cont2_shape2.png	0	59	0	163.948538129336	164.048530886183	0.0999927568464045	stim07_sf1_pattern2_cont2_shape2.png	1	2	2	2	1	2	0	0	0	0	0	0	0	0	0	0	0	0	1	2
178.57861328125	0.0999933433377009	365729	60	10	stim10_sf2_pattern1_cont2_shape1.png	0	60	0	164.448526252911	164.548519596248	0.0999933433377009	stim10_sf2_pattern1_cont2_shape1.png	2	1	2	1	1	3	0	0	0	0	0	0	0	0	0	0	0	0	1	2
179.07861328125	0.100001554197661	366753	61	8	stim08_sf2_pattern1_cont1_shape1.png	0	61	0	164.948511444036	165.048512998233	0.100001554197661	stim08_sf2_pattern1_cont1_shape1.png	2	1	1	1	1	3	0	0	0	0	0	0	0	0	0	0	0	0	1	2
179.5869140625	0.0999948095613945	367794	62	11	stim11_sf2_pattern1_cont2_shape2.png	0	62	0	165.456835938474	165.556830748035	0.0999948095613945	stim11_sf2_pattern1_cont2_shape2.png	2	1	2	2	1	4	0	0	0	0	0	0	0	0	0	0	0	0	1	2
180.0869140625	0.0999942230719171	368818	63	2	stim02_sf1_pattern1_cont2_shape1.png	0	63	0	165.956824062048	166.05681828512	0.0999942230719171	stim02_sf1_pattern1_cont2_shape1.png	1	1	2	1	1	3	0	0	0	0	0	0	0	0	0	0	0	0	1	2
180.59521484375	0.0999924636016658	369859	64	6	stim06_sf1_pattern2_cont2_shape1.png	0	64	0	166.465150315957	166.565142779558	0.0999924636016658	stim06_sf1_pattern2_cont2_shape1.png	1	2	2	1	1	1	0	0	0	0	0	0	0	0	0	0	0	0	1	2
181.09521484375	0.0999933433377009	370883	65	4	stim04_sf1_pattern2_cont1_shape1.png	0	65	0	166.96513726655	167.065130609888	0.0999933433377009	stim04_sf1_pattern2_cont1_shape1.png	1	2	1	1	1	1	0	0	0	0	0	0	0	0	0	0	0	0	1	2
181.59521484375	0.0999977420142386	371907	66	13	stim13_sf2_pattern2_cont1_shape2.png	0	66	0	167.465125390125	167.565123132139	0.0999977420142386	stim13_sf2_pattern2_cont1_shape2.png	2	2	1	2	1	2	0	0	0	0	0	0	0	0	0	0	0	0	1	2
182.09521484375	0.0999971555229422	372931	67	9	stim09_sf2_pattern1_cont1_shape2.png	0	67	0	167.965114393435	168.065111548958	0.0999971555229422	stim09_sf2_pattern1_cont1_shape2.png	2	1	1	2	1	4	0	0	0	0	0	0	0	0	0	0	0	0	1	2
182.59521484375	0.0999965690316458	373955	68	1	stim01_sf1_pattern1_cont1_shape2.png	0	68	0	168.46510368999	168.565100259022	0.0999965690316458	stim01_sf1_pattern1_cont1_shape2.png	1	1	1	2	1	4	0	0	0	0	0	0	0	0	0	0	0	0	1	2
183.09521484375	0.0999918771121884	374979	69	3	stim03_sf1_pattern1_cont2_shape2.png	0	69	0	168.965096505486	169.065088382598	0.0999918771121884	stim03_sf1_pattern1_cont2_shape2.png	1	1	2	2	1	4	0	0	0	0	0	0	0	0	0	0	0	0	1	2
183.59521484375	0.0999953960526909	376003	70	10	stim10_sf2_pattern1_cont2_shape1.png	0	70	1	169.465082576346	169.565077972398	0.0999953960526909	stim10_sf2_pattern1_cont2_shape1.png	2	1	2	1	1	3	0	0	0	0	0	0	0	0	0	0	0	0	1	2
184.09521484375	0.0999933433377009	377027	71	10	stim10_sf2_pattern1_cont2_shape1.png	0	71	1	169.965074512105	170.065067855443	0.0999933433377009	stim10_sf2_pattern1_cont2_shape1.png	2	1	2	1	1	3	0	0	0	0	0	0	0	0	0	0	0	0	1	2
184.5947265625	0.0999951028079522	378050	72	6	stim06_sf1_pattern2_cont2_shape1.png	0	72	2	170.465061169454	170.565056272262	0.0999951028079522	stim06_sf1_pattern2_cont2_shape1.png	1	2	2	1	1	1	0	0	0	0	0	0	0	0	0	0	0	0	1	2
185.0947265625	0.099998328503716	379074	73	5	stim05_sf1_pattern2_cont1_shape2.png	0	73	2	170.965048706539	171.065047035043	0.099998328503716	stim05_sf1_pattern2_cont1_shape2.png	1	2	1	2	1	2	0	0	0	0	0	0	0	0	0	0	0	0	1	2
185.5947265625	0.0999965690334648	380098	74	15	stim15_sf2_pattern2_cont2_shape2.png	0	74	0	171.465040055809	171.565036624843	0.0999965690334648	stim15_sf2_pattern2_cont2_shape2.png	2	2	2	2	1	2	0	0	0	0	0	0	0	0	0	0	0	0	1	2
186.0947265625	0.100218262305134	381122	75	5	stim05_sf1_pattern2_cont1_shape2.png	0	75	0	171.965002960309	172.065221222614	0.100218262305134	stim05_sf1_pattern2_cont1_shape2.png	1	2	1	2	1	2	0	0	0	0	0	0	0	0	0	0	0	0	1	2
186.5947265625	0.0999971555229422	382146	76	0	stim00_sf1_pattern1_cont1_shape1.png	0	76	0	172.46501864892	172.565015804443	0.0999971555229422	stim00_sf1_pattern1_cont1_shape1.png	1	1	1	1	1	3	0	0	0	0	0	0	0	0	0	0	0	0	1	2
187.0947265625	0.0999965690316458	383170	77	7	stim07_sf1_pattern2_cont2_shape2.png	0	77	0	172.965006479249	173.065003048281	0.0999965690316458	stim07_sf1_pattern2_cont2_shape2.png	1	2	2	2	1	2	0	0	0	0	0	0	0	0	0	0	0	0	1	2
187.5947265625	0.0999965690334648	384194	78	2	stim02_sf1_pattern1_cont2_shape1.png	0	78	0	173.464996655539	173.564993224572	0.0999965690334648	stim02_sf1_pattern1_cont2_shape1.png	1	1	2	1	1	3	0	0	0	0	0	0	0	0	0	0	0	0	1	2
188.0947265625	0.0999953960526909	385218	79	1	stim01_sf1_pattern1_cont1_shape2.png	0	79	0	173.964985365605	174.064980761657	0.0999953960526909	stim01_sf1_pattern1_cont1_shape2.png	1	1	1	2	1	4	0	0	0	0	0	0	0	0	0	0	0	0	1	2
188.5947265625	0.0999995014844899	386242	80	5	stim05_sf1_pattern2_cont1_shape2.png	0	80	0	174.464974368913	174.564973870398	0.0999995014844899	stim05_sf1_pattern2_cont1_shape2.png	1	2	1	2	1	2	0	0	0	0	0	0	0	0	0	0	0	0	1	2
189.0947265625	0.0999930500911432	387266	81	9	stim09_sf2_pattern1_cont1_shape2.png	0	81	0	174.9649677709	175.064960820991	0.0999930500911432	stim09_sf2_pattern1_cont1_shape2.png	2	1	1	2	1	4	0	0	0	0	0	0	0	0	0	0	0	0	1	2
189.5947265625	0.0999883581716858	388290	82	4	stim04_sf1_pattern2_cont1_shape1.png	0	82	0	175.464942111956	175.564930470127	0.0999883581716858	stim04_sf1_pattern2_cont1_shape1.png	1	2	1	1	1	1	0	0	0	0	0	0	0	0	0	0	0	0	1	2
190.0947265625	0.0999945163166558	389314	83	12	stim12_sf2_pattern2_cont1_shape1.png	0	83	0	175.964940205864	176.064934722181	0.0999945163166558	stim12_sf2_pattern2_cont1_shape1.png	2	2	1	1	1	1	0	0	0	0	0	0	0	0	0	0	0	0	1	2
190.5947265625	0.100000381218706	390338	84	11	stim11_sf2_pattern1_cont2_shape2.png	0	84	0	176.464929209173	176.564929590391	0.100000381218706	stim11_sf2_pattern1_cont2_shape2.png	2	1	2	2	1	4	0	0	0	0	0	0	0	0	0	0	0	0	1	2
191.0947265625	0.10001562996149	391362	85	6	stim06_sf1_pattern2_cont2_shape1.png	0	85	0	176.964897392083	177.064913022044	0.10001562996149	stim06_sf1_pattern2_cont2_shape1.png	1	2	2	1	1	1	0	0	0	0	0	0	0	0	0	0	0	0	1	2
191.5947265625	0.0999986217466358	392386	86	3	stim03_sf1_pattern1_cont2_shape2.png	0	86	0	177.464906922549	177.564905544295	0.0999986217466358	stim03_sf1_pattern1_cont2_shape2.png	1	1	2	2	1	4	0	0	0	0	0	0	0	0	0	0	0	0	1	2
192.0947265625	0.100014456980716	393410	87	15	stim15_sf2_pattern2_cont2_shape2.png	0	87	0	177.964887128506	178.064901585487	0.100014456980716	stim15_sf2_pattern2_cont2_shape2.png	2	2	2	2	1	2	0	0	0	0	0	0	0	0	0	0	0	0	1	2
192.5947265625	0.0999748688973341	394434	88	8	stim08_sf2_pattern1_cont1_shape1.png	0	88	0	178.464887275128	178.564862144025	0.0999748688973341	stim08_sf2_pattern1_cont1_shape1.png	2	1	1	1	1	3	0	0	0	0	0	0	0	0	0	0	0	0	1	2
193.0947265625	0.0999974487676809	395458	89	10	stim10_sf2_pattern1_cont2_shape1.png	0	89	0	178.964877451419	179.064874900187	0.0999974487676809	stim10_sf2_pattern1_cont2_shape1.png	2	1	2	1	1	3	0	0	0	0	0	0	0	0	0	0	0	0	1	2
193.5947265625	0.100000381218706	396482	90	13	stim13_sf2_pattern2_cont1_shape2.png	0	90	0	179.464869387179	179.564869768397	0.100000381218706	stim13_sf2_pattern2_cont1_shape2.png	2	2	1	2	1	2	0	0	0	0	0	0	0	0	0	0	0	0	1	2
194.0947265625	0.0999959825421683	397506	91	14	stim14_sf2_pattern2_cont2_shape1.png	0	91	0	179.964864548636	180.064860531178	0.0999959825421683	stim14_sf2_pattern2_cont2_shape1.png	2	2	2	1	1	1	0	0	0	0	0	0	0	0	0	0	0	0	1	2
194.5947265625	0.0999989149931935	398530	92	12	stim12_sf2_pattern2_cont1_shape1.png	0	92	0	180.464848860023	180.564847775016	0.0999989149931935	stim12_sf2_pattern2_cont1_shape1.png	2	2	1	1	1	1	0	0	0	0	0	0	0	0	0	0	0	0	1	2
195.0947265625	0.0999927568464045	399554	93	10	stim10_sf2_pattern1_cont2_shape1.png	0	93	0	180.964849299891	181.064842056738	0.0999927568464045	stim10_sf2_pattern1_cont2_shape1.png	2	1	2	1	1	3	0	0	0	0	0	0	0	0	0	0	0	0	1	2
195.5947265625	0.0999804405546456	400578	94	0	stim00_sf1_pattern1_cont1_shape1.png	0	94	0	181.464842408632	181.564822849186	0.0999804405546456	stim00_sf1_pattern1_cont1_shape1.png	1	1	1	1	1	3	0	0	0	0	0	0	0	0	0	0	0	0	1	2
196.0947265625	0.0999965690334648	401602	95	9	stim09_sf2_pattern1_cont1_shape2.png	0	95	0	181.964815576708	182.064812145742	0.0999965690334648	stim09_sf2_pattern1_cont1_shape2.png	2	1	1	2	1	4	0	0	0	0	0	0	0	0	0	0	0	0	1	2
196.5947265625	0.100006539365495	402626	96	3	stim03_sf1_pattern1_cont2_shape2.png	0	96	0	182.464804580019	182.564811119384	0.100006539365495	stim03_sf1_pattern1_cont2_shape2.png	1	1	2	2	1	4	0	0	0	0	0	0	0	0	0	0	0	0	1	2
197.0947265625	0.0999951028079522	403650	97	11	stim11_sf2_pattern1_cont2_shape2.png	0	97	0	182.964794169819	183.064789272627	0.0999951028079522	stim11_sf2_pattern1_cont2_shape2.png	2	1	2	2	1	4	0	0	0	0	0	0	0	0	0	0	0	0	1	2
197.5947265625	0.10002149486354	404674	98	5	stim05_sf1_pattern2_cont1_shape2.png	0	98	0	183.464756781072	183.564778275935	0.10002149486354	stim05_sf1_pattern2_cont1_shape2.png	1	2	1	2	1	2	0	0	0	0	0	0	0	0	0	0	0	0	1	2
198.0947265625	0.0999948095613945	405698	99	14	stim14_sf2_pattern2_cont2_shape1.png	0	99	0	183.964774522399	184.064769331961	0.0999948095613945	stim14_sf2_pattern2_cont2_shape1.png	2	2	2	1	1	1	0	0	0	0	0	0	0	0	0	0	0	0	1	2
198.5947265625	0.0999974487676809	406722	100	8	stim08_sf2_pattern1_cont1_shape1.png	0	100	0	184.464761472993	184.564758921761	0.0999974487676809	stim08_sf2_pattern1_cont1_shape1.png	2	1	1	1	1	3	0	0	0	0	0	0	0	0	0	0	0	0	1	2
199.0947265625	0.0999977420124196	407746	101	13	stim13_sf2_pattern2_cont1_shape2.png	0	101	0	184.964751942529	185.064749684541	0.0999977420124196	stim13_sf2_pattern2_cont1_shape2.png	2	2	1	2	1	2	0	0	0	0	0	0	0	0	0	0	0	0	1	2
199.5947265625	0.0999933433377009	408770	102	4	stim04_sf1_pattern2_cont1_shape1.png	0	102	0	185.464742705308	185.564736048645	0.0999933433377009	stim04_sf1_pattern2_cont1_shape1.png	1	2	1	1	1	1	0	0	0	0	0	0	0	0	0	0	0	0	1	2
200.0947265625	0.0999956892974296	409794	103	2	stim02_sf1_pattern1_cont2_shape1.png	0	103	0	185.964731415374	186.064727104671	0.0999956892974296	stim02_sf1_pattern1_cont2_shape1.png	1	1	2	1	1	3	0	0	0	0	0	0	0	0	0	0	0	0	1	2
200.5947265625	0.0999971555229422	410818	104	7	stim07_sf1_pattern2_cont2_shape2.png	0	104	0	186.464719538948	186.564716694471	0.0999971555229422	stim07_sf1_pattern2_cont2_shape2.png	1	2	2	2	1	2	0	0	0	0	0	0	0	0	0	0	0	0	1	2
201.0947265625	0.0999921703569271	411842	105	15	stim15_sf2_pattern2_cont2_shape2.png	0	105	0	186.964710888218	187.064703058575	0.0999921703569271	stim15_sf2_pattern2_cont2_shape2.png	2	2	2	2	1	2	0	0	0	0	0	0	0	0	0	0	0	0	1	2
201.5947265625	0.0999962757887261	412866	106	6	stim06_sf1_pattern2_cont2_shape1.png	0	106	0	187.464697545567	187.564693821356	0.0999962757887261	stim06_sf1_pattern2_cont2_shape1.png	1	2	2	1	1	1	0	0	0	0	0	0	0	0	0	0	0	0	1	2
202.09423828125	0.10001944214855	413889	107	1	stim01_sf1_pattern1_cont1_shape2.png	0	107	0	187.964666021722	188.064685463871	0.10001944214855	stim01_sf1_pattern1_cont1_shape2.png	1	1	1	2	1	4	0	0	0	0	0	0	0	0	0	0	0	0	1	2
202.59423828125	0.0999992082379322	414913	108	5	stim05_sf1_pattern2_cont1_shape2.png	0	108	0	188.464674672452	188.56467388069	0.0999992082379322	stim05_sf1_pattern2_cont1_shape2.png	1	2	1	2	1	2	0	0	0	0	0	0	0	0	0	0	0	0	1	2
203.09423828125	0.0999945163184748	415937	109	7	stim07_sf1_pattern2_cont2_shape2.png	0	109	0	188.964668074437	189.064662590756	0.0999945163184748	stim07_sf1_pattern2_cont2_shape2.png	1	2	2	2	1	2	0	0	0	0	0	0	0	0	0	0	0	0	1	2
203.59423828125	0.0999968622782035	416961	110	0	stim00_sf1_pattern1_cont1_shape1.png	0	110	0	189.464654438541	189.56465130082	0.0999968622782035	stim00_sf1_pattern1_cont1_shape1.png	1	1	1	1	1	3	0	0	0	0	0	0	0	0	0	0	0	0	1	2
204.09423828125	0.0999930500929622	417985	111	1	stim01_sf1_pattern1_cont1_shape2.png	0	111	0	189.964648427018	190.064641477111	0.0999930500929622	stim01_sf1_pattern1_cont1_shape2.png	1	1	1	2	1	4	0	0	0	0	0	0	0	0	0	0	0	0	1	2
204.59423828125	0.0999848392293643	419009	112	9	stim09_sf2_pattern1_cont1_shape2.png	0	112	0	190.464653265562	190.564638104792	0.0999848392293643	stim09_sf2_pattern1_cont1_shape2.png	2	1	1	2	1	4	0	0	0	0	0	0	0	0	0	0	0	0	1	2
205.09423828125	0.100026480029555	420033	113	11	stim11_sf2_pattern1_cont2_shape2.png	0	113	0	190.964602974032	191.064629454062	0.100026480029555	stim11_sf2_pattern1_cont2_shape2.png	2	1	2	2	1	4	0	0	0	0	0	0	0	0	0	0	0	0	1	2
205.59423828125	0.100002433933696	421057	114	4	stim04_sf1_pattern2_cont1_shape1.png	0	114	0	191.464609572047	191.564612005981	0.100002433933696	stim04_sf1_pattern2_cont1_shape1.png	1	2	1	1	1	1	0	0	0	0	0	0	0	0	0	0	0	0	1	2
206.09423828125	0.0999986217466358	422081	115	13	stim13_sf2_pattern2_cont1_shape2.png	0	115	0	191.964603853768	192.064602475515	0.0999986217466358	stim13_sf2_pattern2_cont1_shape2.png	2	2	1	2	1	2	0	0	0	0	0	0	0	0	0	0	0	0	1	2
206.59423828125	0.0999948095613945	423105	116	12	stim12_sf2_pattern2_cont1_shape1.png	0	116	0	192.464589044892	192.564583854453	0.0999948095613945	stim12_sf2_pattern2_cont1_shape1.png	2	2	1	1	1	1	0	0	0	0	0	0	0	0	0	0	0	0	1	2
207.09423828125	0.0999766283675854	424129	117	6	stim06_sf1_pattern2_cont2_shape1.png	0	117	0	192.964585086083	193.064561714451	0.0999766283675854	stim06_sf1_pattern2_cont2_shape1.png	1	2	2	1	1	1	0	0	0	0	0	0	0	0	0	0	0	0	1	2
207.59423828125	0.0999857189653994	425153	118	8	stim08_sf2_pattern1_cont1_shape1.png	0	118	0	193.464577608334	193.5645633273	0.0999857189653994	stim08_sf2_pattern1_cont1_shape1.png	2	1	1	1	1	3	0	0	0	0	0	0	0	0	0	0	0	0	1	2
208.09423828125	0.0999651918100426	426177	119	15	stim15_sf2_pattern2_cont2_shape2.png	0	119	0	193.964565438664	194.064530630474	0.0999651918100426	stim15_sf2_pattern2_cont2_shape2.png	2	2	2	2	1	2	0	0	0	0	0	0	0	0	0	0	0	0	1	2
208.59423828125	0.100006246120756	427201	120	2	stim02_sf1_pattern1_cont2_shape1.png	0	120	0	194.464540072964	194.564546319085	0.100006246120756	stim02_sf1_pattern1_cont2_shape1.png	1	1	2	1	1	3	0	0	0	0	0	0	0	0	0	0	0	0	1	2
209.09423828125	0.0999901176401181	428225	121	10	stim10_sf2_pattern1_cont2_shape1.png	0	121	0	194.964544911509	195.064535029149	0.0999901176401181	stim10_sf2_pattern1_cont2_shape1.png	2	1	2	1	1	3	0	0	0	0	0	0	0	0	0	0	0	0	1	2
209.59423828125	0.0999959825421683	429249	122	3	stim03_sf1_pattern1_cont2_shape2.png	0	122	0	195.464533035083	195.564529017625	0.0999959825421683	stim03_sf1_pattern1_cont2_shape2.png	1	1	2	2	1	4	0	0	0	0	0	0	0	0	0	0	0	0	1	2
210.09423828125	0.0999863054548769	430273	123	14	stim14_sf2_pattern2_cont2_shape1.png	0	123	0	195.964527903294	196.064514208749	0.0999863054548769	stim14_sf2_pattern2_cont2_shape1.png	2	2	2	1	1	1	0	0	0	0	0	0	0	0	0	0	0	0	1	2
210.59423828125	0.0999989149950125	431297	124	13	stim13_sf2_pattern2_cont1_shape2.png	0	124	0	196.464517786339	196.564516701334	0.0999989149950125	stim13_sf2_pattern2_cont1_shape2.png	2	2	1	2	1	2	0	0	0	0	0	0	0	0	0	0	0	0	1	2
211.09423828125	0.0999833730056707	432321	125	8	stim08_sf2_pattern1_cont1_shape1.png	0	125	0	196.964508549119	197.064491922125	0.0999833730056707	stim08_sf2_pattern1_cont1_shape1.png	2	1	1	1	1	3	0	0	0	0	0	0	0	0	0	0	0	0	1	2
211.59423828125	0.0999898243971984	433345	126	10	stim10_sf2_pattern1_cont2_shape1.png	0	126	0	197.464493153753	197.56448297815	0.0999898243971984	stim10_sf2_pattern1_cont2_shape1.png	2	1	2	1	1	3	0	0	0	0	0	0	0	0	0	0	0	0	1	2
212.09423828125	0.0999971555229422	434369	127	3	stim03_sf1_pattern1_cont2_shape2.png	0	127	0	197.964488021964	198.064485177487	0.0999971555229422	stim03_sf1_pattern1_cont2_shape2.png	1	1	2	2	1	4	0	0	0	0	0	0	0	0	0	0	0	0	1	2
212.59423828125	0.0999980352589773	435393	128	5	stim05_sf1_pattern2_cont1_shape2.png	0	128	0	198.464464122491	198.56446215775	0.0999980352589773	stim05_sf1_pattern2_cont1_shape2.png	1	2	1	2	1	2	0	0	0	0	0	0	0	0	0	0	0	0	1	2
213.09423828125	0.0999959825421683	436417	129	15	stim15_sf2_pattern2_cont2_shape2.png	0	129	0	198.964454592027	199.064450574569	0.0999959825421683	stim15_sf2_pattern2_cont2_shape2.png	2	2	2	2	1	2	0	0	0	0	0	0	0	0	0	0	0	0	1	2
213.59423828125	0.100027653010329	437441	130	9	stim09_sf2_pattern1_cont1_shape2.png	0	130	0	199.46441720328	199.564444856291	0.100027653010329	stim09_sf2_pattern1_cont1_shape2.png	2	1	1	2	1	4	0	0	0	0	0	0	0	0	0	0	0	0	1	2
214.09423828125	0.0999986217484548	438465	131	14	stim14_sf2_pattern2_cont2_shape1.png	0	131	0	199.964431425666	200.064430047414	0.0999986217484548	stim14_sf2_pattern2_cont2_shape1.png	2	2	2	1	1	1	0	0	0	0	0	0	0	0	0	0	0	0	1	2
214.59423828125	0.0999997947292286	439489	132	0	stim00_sf1_pattern1_cont1_shape1.png	0	132	0	200.464421015466	200.564420810195	0.0999997947292286	stim00_sf1_pattern1_cont1_shape1.png	1	1	1	1	1	3	0	0	0	0	0	0	0	0	0	0	0	0	1	2
215.09423828125	0.0999962757887261	440513	133	12	stim12_sf2_pattern2_cont1_shape1.png	0	133	0	200.964412364736	201.064408640525	0.0999962757887261	stim12_sf2_pattern2_cont1_shape1.png	2	2	1	1	1	1	0	0	0	0	0	0	0	0	0	0	0	0	1	2
215.59423828125	0.0999956892974296	441537	134	11	stim11_sf2_pattern1_cont2_shape2.png	0	134	0	201.464400195066	201.564395884363	0.0999956892974296	stim11_sf2_pattern1_cont2_shape2.png	2	1	2	2	1	4	0	0	0	0	0	0	0	0	0	0	0	0	1	2
216.09423828125	0.0999593269079924	442561	135	1	stim01_sf1_pattern1_cont1_shape2.png	0	135	0	201.964390371357	202.064349698265	0.0999593269079924	stim01_sf1_pattern1_cont1_shape2.png	1	1	1	2	1	4	0	0	0	0	0	0	0	0	0	0	0	0	1	2
216.59423828125	0.0999968622782035	443585	136	2	stim02_sf1_pattern1_cont2_shape1.png	0	136	0	202.464379081421	202.564375943699	0.0999968622782035	stim02_sf1_pattern1_cont2_shape1.png	1	1	2	1	1	3	0	0	0	0	0	0	0	0	0	0	0	0	1	2
217.09423828125	0.0999965690334648	444609	137	4	stim04_sf1_pattern2_cont1_shape1.png	0	137	0	202.964370430691	203.064366999724	0.0999965690334648	stim04_sf1_pattern2_cont1_shape1.png	1	2	1	1	1	1	0	0	0	0	0	0	0	0	0	0	0	0	1	2
217.59423828125	0.0999927568464045	445633	138	6	stim06_sf1_pattern2_cont2_shape1.png	0	138	0	203.464359140757	203.564351897603	0.0999927568464045	stim06_sf1_pattern2_cont2_shape1.png	1	2	2	1	1	1	0	0	0	0	0	0	0	0	0	0	0	0	1	2
218.09423828125	0.0999921703569271	446657	139	7	stim07_sf1_pattern2_cont2_shape2.png	0	139	0	203.964354595457	204.064346765814	0.0999921703569271	stim07_sf1_pattern2_cont2_shape2.png	1	2	2	2	1	2	0	0	0	0	0	0	0	0	0	0	0	0	1	2
218.59423828125	0.0999956892974296	447681	140	5	stim05_sf1_pattern2_cont1_shape2.png	0	140	0	204.464337147376	204.564332836673	0.0999956892974296	stim05_sf1_pattern2_cont1_shape2.png	1	2	1	2	1	2	0	0	0	0	0	0	0	0	0	0	0	0	1	2
219.09375	0.0999977420124196	448704	141	8	stim08_sf2_pattern1_cont1_shape1.png	0	141	0	204.964327616912	205.064325358924	0.0999977420124196	stim08_sf2_pattern1_cont1_shape1.png	2	1	1	1	1	3	0	0	0	0	0	0	0	0	0	0	0	0	1	2
219.59375	0.0999968622782035	449728	142	2	stim02_sf1_pattern1_cont2_shape1.png	0	142	0	205.464315740486	205.564312602764	0.0999968622782035	stim02_sf1_pattern1_cont2_shape1.png	1	1	2	1	1	3	0	0	0	0	0	0	0	0	0	0	0	0	1	2
220.09375	0.100003020424992	450752	143	6	stim06_sf1_pattern2_cont2_shape1.png	0	143	0	205.96430621002	206.064309230445	0.100003020424992	stim06_sf1_pattern2_cont2_shape1.png	1	2	2	1	1	1	0	0	0	0	0	0	0	0	0	0	0	0	1	2
220.59375	0.0999898243953794	451776	144	12	stim12_sf2_pattern2_cont1_shape1.png	0	144	0	206.464296386312	206.564286210707	0.0999898243953794	stim12_sf2_pattern2_cont1_shape1.png	2	2	1	1	1	1	0	0	0	0	0	0	0	0	0	0	0	0	1	2
221.09375	0.0999977420142386	452800	145	9	stim09_sf2_pattern1_cont1_shape2.png	0	145	0	206.96426456922	207.064262311234	0.0999977420142386	stim09_sf2_pattern1_cont1_shape2.png	2	1	1	2	1	4	0	0	0	0	0	0	0	0	0	0	0	0	1	2
221.59375	0.10002354757853	453824	146	1	stim01_sf1_pattern1_cont1_shape2.png	0	146	0	207.46425181306	207.564275360639	0.10002354757853	stim01_sf1_pattern1_cont1_shape2.png	1	1	1	2	1	4	0	0	0	0	0	0	0	0	0	0	0	0	1	2
222.09375	0.100022667844314	454848	147	7	stim07_sf1_pattern2_cont2_shape2.png	0	147	0	207.964238763654	208.064261431498	0.100022667844314	stim07_sf1_pattern2_cont2_shape2.png	1	2	2	2	1	2	0	0	0	0	0	0	0	0	0	0	0	0	1	2
222.59375	0.0999854257206607	455872	148	0	stim00_sf1_pattern1_cont1_shape1.png	0	148	0	208.464238910277	208.564224335998	0.0999854257206607	stim00_sf1_pattern1_cont1_shape1.png	1	1	1	1	1	3	0	0	0	0	0	0	0	0	0	0	0	0	1	2
223.09375	0.0999736959165602	456896	149	14	stim14_sf2_pattern2_cont2_shape1.png	0	149	0	208.964239056901	209.064212752817	0.0999736959165602	stim14_sf2_pattern2_cont2_shape1.png	2	2	2	1	1	1	0	0	0	0	0	0	0	0	0	0	0	0	1	2
223.59375	0.0999956892974296	457920	150	15	stim15_sf2_pattern2_cont2_shape2.png	0	150	0	209.46423099266	209.564226681958	0.0999956892974296	stim15_sf2_pattern2_cont2_shape2.png	2	2	2	2	1	2	0	0	0	0	0	0	0	0	0	0	0	0	1	2
224.09375	0.0999986217484548	458944	151	11	stim11_sf2_pattern1_cont2_shape2.png	0	151	0	209.964224687892	210.064223309641	0.0999986217484548	stim11_sf2_pattern1_cont2_shape2.png	2	1	2	2	1	4	0	0	0	0	0	0	0	0	0	0	0	0	1	2
224.59375	0.0999986217484548	459968	152	4	stim04_sf1_pattern2_cont1_shape1.png	0	152	0	210.464213397956	210.564212019704	0.0999986217484548	stim04_sf1_pattern2_cont1_shape1.png	1	2	1	1	1	1	0	0	0	0	0	0	0	0	0	0	0	0	1	2
225.09375	0.100000381218706	460992	153	10	stim10_sf2_pattern1_cont2_shape1.png	0	153	0	210.964202987756	211.064203368975	0.100000381218706	stim10_sf2_pattern1_cont2_shape1.png	2	1	2	1	1	3	0	0	0	0	0	0	0	0	0	0	0	0	1	2
225.59375	0.0999901176419371	462016	154	3	stim03_sf1_pattern1_cont2_shape2.png	0	154	0	211.464194630271	211.564184747913	0.0999901176419371	stim03_sf1_pattern1_cont2_shape2.png	1	1	2	2	1	4	0	0	0	0	0	0	0	0	0	0	0	0	1	2
226.09375	0.0999986217466358	463040	155	13	stim13_sf2_pattern2_cont1_shape2.png	0	155	0	211.964185979543	212.06418460129	0.0999986217466358	stim13_sf2_pattern2_cont1_shape2.png	2	2	1	2	1	2	0	0	0	0	0	0	0	0	0	0	0	0	1	2
226.59375	0.0999904108866758	464064	156	5	stim05_sf1_pattern2_cont1_shape2.png	0	156	0	212.464172636892	212.564163047778	0.0999904108866758	stim05_sf1_pattern2_cont1_shape2.png	1	2	1	2	1	2	0	0	0	0	0	0	0	0	0	0	0	0	1	2
227.09375	0.0999980352589773	465088	157	4	stim04_sf1_pattern2_cont1_shape1.png	0	157	0	212.96415812126	213.064156156519	0.0999980352589773	stim04_sf1_pattern2_cont1_shape1.png	1	2	1	1	1	1	0	0	0	0	0	0	0	0	0	0	0	0	1	2
227.59375	0.0999854257206607	466112	158	9	stim09_sf2_pattern1_cont1_shape2.png	0	158	0	213.464157094902	213.564142520623	0.0999854257206607	stim09_sf2_pattern1_cont1_shape2.png	2	1	1	2	1	4	0	0	0	0	0	0	0	0	0	0	0	0	1	2
228.09375	0.0999977420142386	467136	159	14	stim14_sf2_pattern2_cont2_shape1.png	0	159	0	213.96413554139	214.064133283404	0.0999977420142386	stim14_sf2_pattern2_cont2_shape1.png	2	2	2	1	1	1	0	0	0	0	0	0	0	0	0	0	0	0	1	2
228.59375	0.0999968622782035	468160	160	3	stim03_sf1_pattern1_cont2_shape2.png	0	160	0	214.46412630417	214.564123166449	0.0999968622782035	stim03_sf1_pattern1_cont2_shape2.png	1	1	2	2	1	4	0	0	0	0	0	0	0	0	0	0	0	0	1	2
229.09375	0.0999959825421683	469184	161	10	stim10_sf2_pattern1_cont2_shape1.png	0	161	0	214.9641141345	215.064110117042	0.0999959825421683	stim10_sf2_pattern1_cont2_shape1.png	2	1	2	1	1	3	0	0	0	0	0	0	0	0	0	0	0	0	1	2
229.59375	0.0999857189653994	470208	162	15	stim15_sf2_pattern2_cont2_shape2.png	0	162	0	215.464113694632	215.564099413597	0.0999857189653994	stim15_sf2_pattern2_cont2_shape2.png	2	2	2	2	1	2	0	0	0	0	0	0	0	0	0	0	0	0	1	2
230.09375	0.0999942230719171	471232	163	0	stim00_sf1_pattern1_cont1_shape1.png	0	163	0	215.964094487081	216.064088710153	0.0999942230719171	stim00_sf1_pattern1_cont1_shape1.png	1	1	1	1	1	3	0	0	0	0	0	0	0	0	0	0	0	0	1	2
230.59375	0.0999924636016658	472256	164	13	stim13_sf2_pattern2_cont1_shape2.png	0	164	0	216.46408466337	216.564077126972	0.0999924636016658	stim13_sf2_pattern2_cont1_shape2.png	2	2	1	2	1	2	0	0	0	0	0	0	0	0	0	0	0	0	1	2
231.09375	0.0999921703569271	473280	165	7	stim07_sf1_pattern2_cont2_shape2.png	0	165	0	216.96407483966	217.064067010017	0.0999921703569271	stim07_sf1_pattern2_cont2_shape2.png	1	2	2	2	1	2	0	0	0	0	0	0	0	0	0	0	0	0	1	2
231.59375	0.100050819371972	474304	166	6	stim06_sf1_pattern2_cont2_shape1.png	0	166	0	217.464011352102	217.564062171474	0.100050819371972	stim06_sf1_pattern2_cont2_shape1.png	1	2	2	1	1	1	0	0	0	0	0	0	0	0	0	0	0	0	1	2
232.09375	0.0999927568464045	475328	167	11	stim11_sf2_pattern1_cont2_shape2.png	0	167	0	217.964054605751	218.064047362597	0.0999927568464045	stim11_sf2_pattern1_cont2_shape2.png	2	1	2	2	1	4	0	0	0	0	0	0	0	0	0	0	0	0	1	2
232.59375	0.0999936365824396	476352	168	12	stim12_sf2_pattern2_cont1_shape1.png	0	168	0	218.46404478204	218.564038418623	0.0999936365824396	stim12_sf2_pattern2_cont1_shape1.png	2	2	1	1	1	1	0	0	0	0	0	0	0	0	0	0	0	0	1	2
233.09375	0.0999918771121884	477376	169	2	stim02_sf1_pattern1_cont2_shape1.png	0	169	0	218.964032905615	219.064024782727	0.0999918771121884	stim02_sf1_pattern1_cont2_shape1.png	1	1	2	1	1	3	0	0	0	0	0	0	0	0	0	0	0	0	1	2
233.59375	0.0999877716803894	478400	170	1	stim01_sf1_pattern1_cont1_shape2.png	0	170	0	219.464027187336	219.564014959016	0.0999877716803894	stim01_sf1_pattern1_cont1_shape2.png	1	1	1	2	1	4	0	0	0	0	0	0	0	0	0	0	0	0	1	2
234.09375	0.0999877716803894	479424	171	8	stim08_sf2_pattern1_cont1_shape1.png	0	171	0	219.964017070382	220.064004842063	0.0999877716803894	stim08_sf2_pattern1_cont1_shape1.png	2	1	1	1	1	3	0	0	0	0	0	0	0	0	0	0	0	0	1	2
261.13427734375	0.0999854257206607	534803	172	7	stim07_sf1_pattern2_cont2_shape2.png	1	0	0	247.005088095217	247.105073520937	0.0999854257206607	stim07_sf1_pattern2_cont2_shape2.png	1	2	2	2	1	2	0	0	0	0	0	0	0	0	0	0	0	0	1	2
261.63427734375	0.100003900159209	535827	173	3	stim03_sf1_pattern1_cont2_shape2.png	1	1	0	247.505081790448	247.605085690608	0.100003900159209	stim03_sf1_pattern1_cont2_shape2.png	1	1	2	2	1	4	0	0	0	0	0	0	0	0	0	0	0	0	1	2
262.13427734375	0.0999865986996156	536851	174	10	stim10_sf2_pattern1_cont2_shape1.png	1	2	0	248.005067568063	248.105054166763	0.0999865986996156	stim10_sf2_pattern1_cont2_shape1.png	2	1	2	1	1	3	0	0	0	0	0	0	0	0	0	0	0	0	1	2
262.63427734375	0.100018562412515	537875	175	9	stim09_sf2_pattern1_cont1_shape2.png	1	3	0	248.505044548325	248.605063110737	0.100018562412515	stim09_sf2_pattern1_cont1_shape2.png	2	1	1	2	1	4	0	0	0	0	0	0	0	0	0	0	0	0	1	2
263.13427734375	0.0999995014844899	538899	176	0	stim00_sf1_pattern1_cont1_shape1.png	1	4	0	249.005036484084	249.105035985569	0.0999995014844899	stim00_sf1_pattern1_cont1_shape1.png	1	1	1	1	1	3	0	0	0	0	0	0	0	0	0	0	0	0	1	2
263.63427734375	0.100013284001761	539923	177	5	stim05_sf1_pattern2_cont1_shape2.png	1	5	0	249.50502695362	249.605040237622	0.100013284001761	stim05_sf1_pattern2_cont1_shape2.png	1	2	1	2	1	2	0	0	0	0	0	0	0	0	0	0	0	0	1	2
264.13427734375	0.100010351550736	540947	178	6	stim06_sf1_pattern2_cont2_shape1.png	1	6	0	250.005016250176	250.105026601726	0.100010351550736	stim06_sf1_pattern2_cont2_shape1.png	1	2	2	1	1	1	0	0	0	0	0	0	0	0	0	0	0	0	1	2
264.63427734375	0.0999986217484548	541971	179	12	stim12_sf2_pattern2_cont1_shape1.png	1	7	0	250.505024021169	250.605022642918	0.0999986217484548	stim12_sf2_pattern2_cont1_shape1.png	2	2	1	1	1	1	0	0	0	0	0	0	0	0	0	0	0	0	1	2
265.13427734375	0.0999904108866758	542995	180	8	stim08_sf2_pattern1_cont1_shape1.png	1	8	0	251.005023581301	251.105013992188	0.0999904108866758	stim08_sf2_pattern1_cont1_shape1.png	2	1	1	1	1	3	0	0	0	0	0	0	0	0	0	0	0	0	1	2
265.63427734375	0.0999783878396556	544019	181	13	stim13_sf2_pattern2_cont1_shape2.png	1	9	0	251.505038976667	251.605017364507	0.0999783878396556	stim13_sf2_pattern2_cont1_shape2.png	2	2	1	2	1	2	0	0	0	0	0	0	0	0	0	0	0	0	1	2
266.13427734375	0.100022961089053	545043	182	2	stim02_sf1_pattern1_cont2_shape1.png	1	10	0	252.004974022884	252.104996983973	0.100022961089053	stim02_sf1_pattern1_cont2_shape1.png	1	1	2	1	1	3	0	0	0	0	0	0	0	0	0	0	0	0	1	2
266.63427734375	0.0999939298271784	546067	183	11	stim11_sf2_pattern1_cont2_shape2.png	1	11	0	252.504995576397	252.604989506224	0.0999939298271784	stim11_sf2_pattern1_cont2_shape2.png	2	1	2	2	1	4	0	0	0	0	0	0	0	0	0	0	0	0	1	2
267.13427734375	0.0999455443889019	547091	184	1	stim01_sf1_pattern1_cont1_shape2.png	1	12	0	253.004982233748	253.104927778137	0.0999455443889019	stim01_sf1_pattern1_cont1_shape2.png	1	1	1	2	1	4	0	0	0	0	0	0	0	0	0	0	0	0	1	2
267.63427734375	0.099998328503716	548115	185	14	stim14_sf2_pattern2_cont2_shape1.png	1	13	0	253.50496449242	253.604962820924	0.099998328503716	stim14_sf2_pattern2_cont2_shape1.png	2	2	2	1	1	1	0	0	0	0	0	0	0	0	0	0	0	0	1	2
268.13427734375	0.0999997947292286	549139	186	4	stim04_sf1_pattern2_cont1_shape1.png	1	14	0	254.004960533612	254.104960328341	0.0999997947292286	stim04_sf1_pattern2_cont1_shape1.png	1	2	1	1	1	1	0	0	0	0	0	0	0	0	0	0	0	0	1	2
268.63427734375	0.0999959825421683	550163	187	15	stim15_sf2_pattern2_cont2_shape2.png	1	15	0	254.50494367202	254.604939654562	0.0999959825421683	stim15_sf2_pattern2_cont2_shape2.png	2	2	2	2	1	2	0	0	0	0	0	0	0	0	0	0	0	0	1	2
269.13427734375	0.0999977420142386	551187	188	0	stim00_sf1_pattern1_cont1_shape1.png	1	16	0	255.004933555065	255.104931297079	0.0999977420142386	stim00_sf1_pattern1_cont1_shape1.png	1	1	1	1	1	3	0	0	0	0	0	0	0	0	0	0	0	0	1	2
269.63427734375	0.0999933433377009	552211	189	15	stim15_sf2_pattern2_cont2_shape2.png	1	17	0	255.504926077316	255.604919420653	0.0999933433377009	stim15_sf2_pattern2_cont2_shape2.png	2	2	2	2	1	2	0	0	0	0	0	0	0	0	0	0	0	0	1	2
270.13427734375	0.0999980352571583	553235	190	13	stim13_sf2_pattern2_cont1_shape2.png	1	18	0	256.004911561686	256.104909596943	0.0999980352571583	stim13_sf2_pattern2_cont1_shape2.png	2	2	1	2	1	2	0	0	0	0	0	0	0	0	0	0	0	0	1	2
270.63427734375	0.0999863054548769	554259	191	5	stim05_sf1_pattern2_cont1_shape2.png	1	19	0	256.504910242082	256.604896547537	0.0999863054548769	stim05_sf1_pattern2_cont1_shape2.png	1	2	1	2	1	2	0	0	0	0	0	0	0	0	0	0	0	0	1	2
271.13427734375	0.0999974487676809	555283	192	9	stim09_sf2_pattern1_cont1_shape2.png	1	20	0	257.004889568305	257.104887017073	0.0999974487676809	stim09_sf2_pattern1_cont1_shape2.png	2	1	1	2	1	4	0	0	0	0	0	0	0	0	0	0	0	0	1	2
271.63427734375	0.0999945163166558	556307	193	7	stim07_sf1_pattern2_cont2_shape2.png	1	21	0	257.504880331086	257.604874847402	0.0999945163166558	stim07_sf1_pattern2_cont2_shape2.png	1	2	2	2	1	2	0	0	0	0	0	0	0	0	0	0	0	0	1	2
272.13427734375	0.099998328503716	557331	194	8	stim08_sf2_pattern1_cont1_shape1.png	1	22	0	258.004867574924	258.104865903428	0.099998328503716	stim08_sf2_pattern1_cont1_shape1.png	2	1	1	1	1	3	0	0	0	0	0	0	0	0	0	0	0	0	1	2
272.63427734375	0.0999927568464045	558355	195	14	stim14_sf2_pattern2_cont2_shape1.png	1	23	0	258.50485980393	258.604852560777	0.0999927568464045	stim14_sf2_pattern2_cont2_shape1.png	2	2	2	1	1	1	0	0	0	0	0	0	0	0	0	0	0	0	1	2
273.13427734375	0.0999965690334648	559379	196	10	stim10_sf2_pattern1_cont2_shape1.png	1	24	0	259.004847927505	259.104844496538	0.0999965690334648	stim10_sf2_pattern1_cont2_shape1.png	2	1	2	1	1	3	0	0	0	0	0	0	0	0	0	0	0	0	1	2
273.63427734375	0.0999971555229422	560403	197	3	stim03_sf1_pattern1_cont2_shape2.png	1	25	0	259.50483722406	259.604834379583	0.0999971555229422	stim03_sf1_pattern1_cont2_shape2.png	1	1	2	2	1	4	0	0	0	0	0	0	0	0	0	0	0	0	1	2
274.13427734375	0.0999986217484548	561427	198	6	stim06_sf1_pattern2_cont2_shape1.png	1	26	0	260.004827107105	260.104825728853	0.0999986217484548	stim06_sf1_pattern2_cont2_shape1.png	1	2	2	1	1	1	0	0	0	0	0	0	0	0	0	0	0	0	1	2
274.63427734375	0.0999924636016658	562451	199	2	stim02_sf1_pattern1_cont2_shape1.png	1	27	0	260.504818456375	260.604810919976	0.0999924636016658	stim02_sf1_pattern1_cont2_shape1.png	1	1	2	1	1	3	0	0	0	0	0	0	0	0	0	0	0	0	1	2
275.13427734375	0.0999857189635804	563475	200	11	stim11_sf2_pattern1_cont2_shape2.png	1	28	0	261.004807166441	261.104792885404	0.0999857189635804	stim11_sf2_pattern1_cont2_shape2.png	2	1	2	2	1	4	0	0	0	0	0	0	0	0	0	0	0	0	1	2
275.63427734375	0.0999672445250326	564499	201	1	stim01_sf1_pattern1_cont1_shape2.png	1	29	0	261.504798222466	261.604765466991	0.0999672445250326	stim01_sf1_pattern1_cont1_shape2.png	1	1	1	2	1	4	0	0	0	0	0	0	0	0	0	0	0	0	1	2
276.13427734375	0.0999751621420728	565523	202	12	stim12_sf2_pattern2_cont1_shape1.png	1	30	0	262.004783120345	262.104758282487	0.0999751621420728	stim12_sf2_pattern2_cont1_shape1.png	2	2	1	1	1	1	0	0	0	0	0	0	0	0	0	0	0	0	1	2
276.63427734375	0.0999660715460777	566547	203	4	stim04_sf1_pattern2_cont1_shape1.png	1	31	0	262.504779454781	262.604745526327	0.0999660715460777	stim04_sf1_pattern2_cont1_shape1.png	1	2	1	1	1	1	0	0	0	0	0	0	0	0	0	0	0	0	1	2
277.1337890625	0.0999798540651682	567570	204	11	stim11_sf2_pattern1_cont2_shape2.png	1	32	0	263.004763472924	263.104743326989	0.0999798540651682	stim11_sf2_pattern1_cont2_shape2.png	2	1	2	2	1	4	0	0	0	0	0	0	0	0	0	0	0	0	1	2
277.6337890625	0.0999634323397913	568594	205	12	stim12_sf2_pattern2_cont1_shape1.png	1	33	0	263.504760393851	263.604723826191	0.0999634323397913	stim12_sf2_pattern2_cont1_shape1.png	2	2	1	1	1	1	0	0	0	0	0	0	0	0	0	0	0	0	1	2
278.1337890625	0.09996577829952	569618	206	8	stim08_sf2_pattern1_cont1_shape1.png	1	34	0	264.004747930936	264.104713709236	0.09996577829952	stim08_sf2_pattern1_cont1_shape1.png	2	1	1	1	1	3	0	0	0	0	0	0	0	0	0	0	0	0	1	2
278.6337890625	0.0999736959183792	570642	207	4	stim04_sf1_pattern2_cont1_shape1.png	1	35	0	264.504728430138	264.604702126057	0.0999736959183792	stim04_sf1_pattern2_cont1_shape1.png	1	2	1	1	1	1	0	0	0	0	0	0	0	0	0	0	0	0	1	2
279.1337890625	0.100005952876018	571666	208	2	stim02_sf1_pattern1_cont2_shape1.png	1	36	0	265.004697492783	265.104703445659	0.100005952876018	stim02_sf1_pattern1_cont2_shape1.png	1	1	2	1	1	3	0	0	0	0	0	0	0	0	0	0	0	0	1	2
279.6337890625	0.0999739891631179	572690	209	9	stim09_sf2_pattern1_cont1_shape2.png	1	37	0	265.504707609738	265.604681598901	0.0999739891631179	stim09_sf2_pattern1_cont1_shape2.png	2	1	1	2	1	4	0	0	0	0	0	0	0	0	0	0	0	0	1	2
280.1337890625	0.100004486650505	573714	210	5	stim05_sf1_pattern2_cont1_shape2.png	1	38	0	266.004700131989	266.10470461864	0.100004486650505	stim05_sf1_pattern2_cont1_shape2.png	1	2	1	2	1	2	0	0	0	0	0	0	0	0	0	0	0	0	1	2
280.6337890625	0.0999880649251281	574738	211	0	stim00_sf1_pattern1_cont1_shape1.png	1	39	0	266.504700278612	266.604688343537	0.0999880649251281	stim00_sf1_pattern1_cont1_shape1.png	1	1	1	1	1	3	0	0	0	0	0	0	0	0	0	0	0	0	1	2
281.1337890625	0.0999933433358819	575762	212	1	stim01_sf1_pattern1_cont1_shape2.png	1	40	0	267.004688108942	267.104681452278	0.0999933433358819	stim01_sf1_pattern1_cont1_shape2.png	1	1	1	2	1	4	0	0	0	0	0	0	0	0	0	0	0	0	1	2
281.6337890625	0.0999977420124196	576786	213	6	stim06_sf1_pattern2_cont2_shape1.png	1	41	0	267.50467183384	267.604669575852	0.0999977420124196	stim06_sf1_pattern2_cont2_shape1.png	1	2	2	1	1	1	0	0	0	0	0	0	0	0	0	0	0	0	1	2
282.1337890625	0.100014456982535	577810	214	13	stim13_sf2_pattern2_cont1_shape2.png	1	42	0	268.004650280327	268.10466473731	0.100014456982535	stim13_sf2_pattern2_cont1_shape2.png	2	2	1	2	1	2	0	0	0	0	0	0	0	0	0	0	0	0	1	2
282.6337890625	0.0999962757869071	578834	215	10	stim10_sf2_pattern1_cont2_shape1.png	1	43	0	268.504655705361	268.604651981148	0.0999962757869071	stim10_sf2_pattern1_cont2_shape1.png	2	1	2	1	1	3	0	0	0	0	0	0	0	0	0	0	0	0	1	2
283.1337890625	0.0999962757869071	579858	216	7	stim07_sf1_pattern2_cont2_shape2.png	1	44	0	269.004637084299	269.104633360086	0.0999962757869071	stim07_sf1_pattern2_cont2_shape2.png	1	2	2	2	1	2	0	0	0	0	0	0	0	0	0	0	0	0	1	2
283.6337890625	0.0999956892974296	580882	217	15	stim15_sf2_pattern2_cont2_shape2.png	1	45	0	269.504626674099	269.604622363397	0.0999956892974296	stim15_sf2_pattern2_cont2_shape2.png	2	2	2	2	1	2	0	0	0	0	0	0	0	0	0	0	0	0	1	2
284.1337890625	0.0999956892974296	581906	218	3	stim03_sf1_pattern1_cont2_shape2.png	1	46	0	270.004615090918	270.104610780216	0.0999956892974296	stim03_sf1_pattern1_cont2_shape2.png	1	1	2	2	1	4	0	0	0	0	0	0	0	0	0	0	0	0	1	2
284.6337890625	0.0999962757869071	582930	219	14	stim14_sf2_pattern2_cont2_shape1.png	1	47	0	270.50460526721	270.604601542997	0.0999962757869071	stim14_sf2_pattern2_cont2_shape1.png	2	2	2	1	1	1	0	0	0	0	0	0	0	0	0	0	0	0	1	2
285.1337890625	0.0999945163184748	583954	220	5	stim05_sf1_pattern2_cont1_shape2.png	1	48	0	271.004594563763	271.104589080081	0.0999945163184748	stim05_sf1_pattern2_cont1_shape2.png	1	2	1	2	1	2	0	0	0	0	0	0	0	0	0	0	0	0	1	2
285.6337890625	0.0999945163166558	584978	221	9	stim09_sf2_pattern1_cont1_shape2.png	1	49	0	271.504585326544	271.60457984286	0.0999945163166558	stim09_sf2_pattern1_cont1_shape2.png	2	1	1	2	1	4	0	0	0	0	0	0	0	0	0	0	0	0	1	2
286.1337890625	0.0999965690316458	586002	222	13	stim13_sf2_pattern2_cont1_shape2.png	1	50	0	272.004572570384	272.104569139416	0.0999965690316458	stim13_sf2_pattern2_cont1_shape2.png	2	2	1	2	1	2	0	0	0	0	0	0	0	0	0	0	0	0	1	2
286.6337890625	0.0999907041314145	587026	223	8	stim08_sf2_pattern1_cont1_shape1.png	1	51	0	272.504570371046	272.604561075177	0.0999907041314145	stim08_sf2_pattern1_cont1_shape1.png	2	1	1	1	1	3	0	0	0	0	0	0	0	0	0	0	0	0	1	2
287.1337890625	0.0999980352571583	588050	224	4	stim04_sf1_pattern2_cont1_shape1.png	1	52	0	273.004551749984	273.104549785241	0.0999980352571583	stim04_sf1_pattern2_cont1_shape1.png	1	2	1	1	1	1	0	0	0	0	0	0	0	0	0	0	0	0	1	2
287.6337890625	0.099998328503716	589074	225	2	stim02_sf1_pattern1_cont2_shape1.png	1	53	0	273.504541926273	273.604540254777	0.099998328503716	stim02_sf1_pattern1_cont2_shape1.png	1	1	2	1	1	3	0	0	0	0	0	0	0	0	0	0	0	0	1	2
288.1337890625	0.0999948095632135	590098	226	6	stim06_sf1_pattern2_cont2_shape1.png	1	54	0	274.004531809318	274.104526618881	0.0999948095632135	stim06_sf1_pattern2_cont2_shape1.png	1	2	2	1	1	1	0	0	0	0	0	0	0	0	0	0	0	0	1	2
288.6337890625	0.0999992082379322	591122	227	15	stim15_sf2_pattern2_cont2_shape2.png	1	55	0	274.504521105873	274.604520314111	0.0999992082379322	stim15_sf2_pattern2_cont2_shape2.png	2	2	2	2	1	2	0	0	0	0	0	0	0	0	0	0	0	0	1	2
289.1337890625	0.0999945163166558	592146	228	10	stim10_sf2_pattern1_cont2_shape1.png	1	56	0	275.004511282164	275.104505798481	0.0999945163166558	stim10_sf2_pattern1_cont2_shape1.png	2	1	2	1	1	3	0	0	0	0	0	0	0	0	0	0	0	0	1	2
289.6337890625	0.0999716432015703	593170	229	14	stim14_sf2_pattern2_cont2_shape1.png	1	57	0	275.504502044943	275.604473688145	0.0999716432015703	stim14_sf2_pattern2_cont2_shape1.png	2	2	2	1	1	1	0	0	0	0	0	0	0	0	0	0	0	0	1	2
290.1337890625	0.0999939298253594	594194	230	0	stim00_sf1_pattern1_cont1_shape1.png	1	58	0	276.004488702294	276.104482632119	0.0999939298253594	stim00_sf1_pattern1_cont1_shape1.png	1	1	1	1	1	3	0	0	0	0	0	0	0	0	0	0	0	0	1	2
290.6337890625	0.0999965690316458	595218	231	3	stim03_sf1_pattern1_cont2_shape2.png	1	59	0	276.504478292094	276.604474861126	0.0999965690316458	stim03_sf1_pattern1_cont2_shape2.png	1	1	2	2	1	4	0	0	0	0	0	0	0	0	0	0	0	0	1	2
291.1337890625	0.0999775081036205	596242	232	7	stim07_sf1_pattern2_cont2_shape2.png	1	60	0	277.004465242688	277.104442750791	0.0999775081036205	stim07_sf1_pattern2_cont2_shape2.png	1	2	2	2	1	2	0	0	0	0	0	0	0	0	0	0	0	0	1	2
291.6337890625	0.100006539365495	597266	233	11	stim11_sf2_pattern1_cont2_shape2.png	1	61	0	277.504460990634	277.60446753	0.100006539365495	stim11_sf2_pattern1_cont2_shape2.png	2	1	2	2	1	4	0	0	0	0	0	0	0	0	0	0	0	0	1	2
292.1337890625	0.0999801473080879	598290	234	12	stim12_sf2_pattern2_cont1_shape1.png	1	62	0	278.004444129043	278.104424276351	0.0999801473080879	stim12_sf2_pattern2_cont1_shape1.png	2	2	1	1	1	1	0	0	0	0	0	0	0	0	0	0	0	0	1	2
292.6337890625	0.10001944214855	599314	235	1	stim01_sf1_pattern1_cont1_shape2.png	1	63	0	278.504419936324	278.604439378472	0.10001944214855	stim01_sf1_pattern1_cont1_shape2.png	1	1	1	2	1	4	0	0	0	0	0	0	0	0	0	0	0	0	1	2
293.1337890625	0.0999942230737361	600338	236	8	stim08_sf2_pattern1_cont1_shape1.png	1	64	0	279.004401608507	279.10439583158	0.0999942230737361	stim08_sf2_pattern1_cont1_shape1.png	2	1	1	1	1	3	0	0	0	0	0	0	0	0	0	0	0	0	1	2
293.6337890625	0.100025893540078	601362	237	9	stim09_sf2_pattern1_cont1_shape2.png	1	65	0	279.504351610223	279.604377503763	0.100025893540078	stim09_sf2_pattern1_cont1_shape2.png	2	1	1	2	1	4	0	0	0	0	0	0	0	0	0	0	0	0	1	2
294.1337890625	0.100010351550736	602386	238	11	stim11_sf2_pattern1_cont2_shape2.png	1	66	0	280.0043931044	280.104403455951	0.100010351550736	stim11_sf2_pattern1_cont2_shape2.png	2	1	2	2	1	4	0	0	0	0	0	0	0	0	0	0	0	0	1	2
294.63330078125	0.0999956892974296	603409	239	14	stim14_sf2_pattern2_cont2_shape1.png	1	67	0	280.504391491553	280.604387180851	0.0999956892974296	stim14_sf2_pattern2_cont2_shape1.png	2	2	2	1	1	1	0	0	0	0	0	0	0	0	0	0	0	0	1	2
295.13330078125	0.100018855659073	604433	240	10	stim10_sf2_pattern1_cont2_shape1.png	1	68	0	281.004361433932	281.104380289591	0.100018855659073	stim10_sf2_pattern1_cont2_shape1.png	2	1	2	1	1	3	0	0	0	0	0	0	0	0	0	0	0	0	1	2
295.63330078125	0.0999886514164245	605457	241	2	stim02_sf1_pattern1_cont2_shape1.png	1	69	0	281.504406447051	281.604395098468	0.0999886514164245	stim02_sf1_pattern1_cont2_shape1.png	1	1	2	1	1	3	0	0	0	0	0	0	0	0	0	0	0	0	1	2
296.13330078125	0.0999992082379322	606481	242	1	stim01_sf1_pattern1_cont1_shape2.png	1	70	0	282.004366712345	282.104365920582	0.0999992082379322	stim01_sf1_pattern1_cont1_shape2.png	1	1	1	2	1	4	0	0	0	0	0	0	0	0	0	0	0	0	1	2
296.63330078125	0.0999898243953794	607505	243	5	stim05_sf1_pattern2_cont1_shape2.png	1	71	0	282.504359821085	282.60434964548	0.0999898243953794	stim05_sf1_pattern2_cont1_shape2.png	1	2	1	2	1	2	0	0	0	0	0	0	0	0	0	0	0	0	1	2
297.13330078125	0.0999924636016658	608529	244	4	stim04_sf1_pattern2_cont1_shape1.png	1	72	0	283.004351756845	283.104344220446	0.0999924636016658	stim04_sf1_pattern2_cont1_shape1.png	1	2	1	1	1	1	0	0	0	0	0	0	0	0	0	0	0	0	1	2
297.63330078125	0.0999980352571583	609553	245	15	stim15_sf2_pattern2_cont2_shape2.png	1	73	0	283.504339000685	283.604337035942	0.0999980352571583	stim15_sf2_pattern2_cont2_shape2.png	2	2	2	2	1	2	0	0	0	0	0	0	0	0	0	0	0	0	1	2
298.13330078125	0.100000967708183	610577	246	6	stim06_sf1_pattern2_cont2_shape1.png	1	74	0	284.004315687702	284.10431665541	0.100000967708183	stim06_sf1_pattern2_cont2_shape1.png	1	2	2	1	1	1	0	0	0	0	0	0	0	0	0	0	0	0	1	2
298.63330078125	0.0999986217484548	611601	247	13	stim13_sf2_pattern2_cont1_shape2.png	1	75	0	284.504308796442	284.604307418191	0.0999986217484548	stim13_sf2_pattern2_cont1_shape2.png	2	2	1	2	1	2	0	0	0	0	0	0	0	0	0	0	0	0	1	2
299.13330078125	0.0999956892974296	612625	248	3	stim03_sf1_pattern1_cont2_shape2.png	1	76	0	285.004301318693	285.104297007991	0.0999956892974296	stim03_sf1_pattern1_cont2_shape2.png	1	1	2	2	1	4	0	0	0	0	0	0	0	0	0	0	0	0	1	2
299.63330078125	0.0999980352589773	613649	249	7	stim07_sf1_pattern2_cont2_shape2.png	1	77	0	285.504287682797	285.604285718056	0.0999980352589773	stim07_sf1_pattern2_cont2_shape2.png	1	2	2	2	1	2	0	0	0	0	0	0	0	0	0	0	0	0	1	2
300.13330078125	0.0999942230719171	614673	250	0	stim00_sf1_pattern1_cont1_shape1.png	1	78	0	286.004279911804	286.104274134876	0.0999942230719171	stim00_sf1_pattern1_cont1_shape1.png	1	1	1	1	1	3	0	0	0	0	0	0	0	0	0	0	0	0	1	2
300.63330078125	0.0999968622782035	615697	251	12	stim12_sf2_pattern2_cont1_shape1.png	1	79	0	286.504266569153	286.604263431431	0.0999968622782035	stim12_sf2_pattern2_cont1_shape1.png	2	2	1	1	1	1	0	0	0	0	0	0	0	0	0	0	0	0	1	2
301.13330078125	0.0999883581716858	616721	252	7	stim07_sf1_pattern2_cont2_shape2.png	1	80	0	287.004262903589	287.104251261761	0.0999883581716858	stim07_sf1_pattern2_cont2_shape2.png	1	2	2	2	1	2	0	0	0	0	0	0	0	0	0	0	0	0	1	2
301.63330078125	0.0999974487676809	617745	253	15	stim15_sf2_pattern2_cont2_shape2.png	1	81	0	287.504244282527	287.604241731295	0.0999974487676809	stim15_sf2_pattern2_cont2_shape2.png	2	2	2	2	1	2	0	0	0	0	0	0	0	0	0	0	0	0	1	2
302.13330078125	0.0999942230719171	618769	254	2	stim02_sf1_pattern1_cont2_shape1.png	1	82	0	288.004237391267	288.104231614339	0.0999942230719171	stim02_sf1_pattern1_cont2_shape1.png	1	1	2	1	1	3	0	0	0	0	0	0	0	0	0	0	0	0	1	2
302.63330078125	0.0999953960526909	619793	255	6	stim06_sf1_pattern2_cont2_shape1.png	1	83	0	288.504226981067	288.60422237712	0.0999953960526909	stim06_sf1_pattern2_cont2_shape1.png	1	2	2	1	1	1	0	0	0	0	0	0	0	0	0	0	0	0	1	2
303.13330078125	0.0999502363119973	620817	256	5	stim05_sf1_pattern2_cont1_shape2.png	1	84	0	289.004233872327	289.104184108639	0.0999502363119973	stim05_sf1_pattern2_cont1_shape2.png	1	2	1	2	1	2	0	0	0	0	0	0	0	0	0	0	0	0	1	2
303.63330078125	0.099998328503716	621841	257	0	stim00_sf1_pattern1_cont1_shape1.png	1	85	0	289.504203814708	289.604202143211	0.099998328503716	stim00_sf1_pattern1_cont1_shape1.png	1	1	1	1	1	3	0	0	0	0	0	0	0	0	0	0	0	0	1	2
304.13330078125	0.0999936365824396	622865	258	12	stim12_sf2_pattern2_cont1_shape1.png	1	86	0	290.004193404508	290.10418704109	0.0999936365824396	stim12_sf2_pattern2_cont1_shape1.png	2	2	1	1	1	1	0	0	0	0	0	0	0	0	0	0	0	0	1	2
304.63330078125	0.0999986217484548	623889	259	3	stim03_sf1_pattern1_cont2_shape2.png	1	87	0	290.504181528082	290.60418014983	0.0999986217484548	stim03_sf1_pattern1_cont2_shape2.png	1	1	2	2	1	4	0	0	0	0	0	0	0	0	0	0	0	0	1	2
305.13330078125	0.0999868919443543	624913	260	11	stim11_sf2_pattern1_cont2_shape2.png	1	88	0	291.004179915235	291.104166807179	0.0999868919443543	stim11_sf2_pattern1_cont2_shape2.png	2	1	2	2	1	4	0	0	0	0	0	0	0	0	0	0	0	0	1	2
305.63330078125	0.0999959825439873	625937	261	14	stim14_sf2_pattern2_cont2_shape1.png	1	89	0	291.504162760397	291.604158742941	0.0999959825439873	stim14_sf2_pattern2_cont2_shape1.png	2	2	2	1	1	1	0	0	0	0	0	0	0	0	0	0	0	0	1	2
306.13330078125	0.0999965690334648	626961	262	4	stim04_sf1_pattern2_cont1_shape1.png	1	90	0	292.004152056952	292.104148625986	0.0999965690334648	stim04_sf1_pattern2_cont1_shape1.png	1	2	1	1	1	1	0	0	0	0	0	0	0	0	0	0	0	0	1	2
306.63330078125	0.100006246118937	627985	263	8	stim08_sf2_pattern1_cont1_shape1.png	1	91	0	292.504139300792	292.604145546911	0.100006246118937	stim08_sf2_pattern1_cont1_shape1.png	2	1	1	1	1	3	0	0	0	0	0	0	0	0	0	0	0	0	1	2
307.13330078125	0.0999707634673541	629009	264	13	stim13_sf2_pattern2_cont1_shape2.png	1	92	0	293.004137394699	293.104108158166	0.0999707634673541	stim13_sf2_pattern2_cont1_shape2.png	2	2	1	2	1	2	0	0	0	0	0	0	0	0	0	0	0	0	1	2
307.63330078125	0.100000087972148	630033	265	1	stim01_sf1_pattern1_cont1_shape2.png	1	93	0	293.504119653373	293.604119741345	0.100000087972148	stim01_sf1_pattern1_cont1_shape2.png	1	1	1	2	1	4	0	0	0	0	0	0	0	0	0	0	0	0	1	2
308.13330078125	0.0999775081036205	631057	266	10	stim10_sf2_pattern1_cont2_shape1.png	1	94	0	294.004105430986	294.104082939089	0.0999775081036205	stim10_sf2_pattern1_cont2_shape1.png	2	1	2	1	1	3	0	0	0	0	0	0	0	0	0	0	0	0	1	2
308.63330078125	0.099969883731319	632081	267	9	stim09_sf2_pattern1_cont1_shape2.png	1	95	0	294.504099126218	294.604069009949	0.099969883731319	stim09_sf2_pattern1_cont1_shape2.png	2	1	1	2	1	4	0	0	0	0	0	0	0	0	0	0	0	0	1	2
309.13330078125	0.0999687107505451	633105	268	14	stim14_sf2_pattern2_cont2_shape1.png	1	96	0	295.00409985933	295.104068570081	0.0999687107505451	stim14_sf2_pattern2_cont2_shape1.png	2	2	2	1	1	1	0	0	0	0	0	0	0	0	0	0	0	0	1	2
309.63330078125	0.100003313667912	634129	269	13	stim13_sf2_pattern2_cont1_shape2.png	1	97	0	295.504082997739	295.604086311407	0.100003313667912	stim13_sf2_pattern2_cont1_shape2.png	2	2	1	2	1	2	0	0	0	0	0	0	0	0	0	0	0	0	1	2
310.13330078125	0.10006518838054	635153	270	2	stim02_sf1_pattern1_cont2_shape1.png	1	98	0	296.004042969786	296.104108158166	0.10006518838054	stim02_sf1_pattern1_cont2_shape1.png	1	1	2	1	1	3	0	0	0	0	0	0	0	0	0	0	0	0	1	2
310.63330078125	0.100000674463445	636177	271	8	stim08_sf2_pattern1_cont1_shape1.png	1	99	0	296.504053379986	296.604054054449	0.100000674463445	stim08_sf2_pattern1_cont1_shape1.png	2	1	1	1	1	3	0	0	0	0	0	0	0	0	0	0	0	0	1	2
311.13330078125	0.100028825991103	637201	272	1	stim01_sf1_pattern1_cont1_shape2.png	1	100	0	297.004044436011	297.104073262002	0.100028825991103	stim01_sf1_pattern1_cont1_shape2.png	1	1	1	2	1	4	0	0	0	0	0	0	0	0	0	0	0	0	1	2
311.63330078125	0.100002727178435	638225	273	12	stim12_sf2_pattern2_cont1_shape1.png	1	101	0	297.504033439322	297.6040361665	0.100002727178435	stim12_sf2_pattern2_cont1_shape1.png	2	2	1	1	1	1	0	0	0	0	0	0	0	0	0	0	0	0	1	2
312.1328125	0.100023547580349	639248	274	5	stim05_sf1_pattern2_cont1_shape2.png	1	102	0	298.004023908856	298.104047456436	0.100023547580349	stim05_sf1_pattern2_cont1_shape2.png	1	2	1	2	1	2	0	0	0	0	0	0	0	0	0	0	0	0	1	2
312.6328125	0.099998328503716	640272	275	6	stim06_sf1_pattern2_cont2_shape1.png	1	103	0	298.504021416273	298.604019744776	0.099998328503716	stim06_sf1_pattern2_cont2_shape1.png	1	2	2	1	1	1	0	0	0	0	0	0	0	0	0	0	0	0	1	2
313.1328125	0.100007125854972	641296	276	15	stim15_sf2_pattern2_cont2_shape2.png	1	104	0	299.004003674947	299.104010800802	0.100007125854972	stim15_sf2_pattern2_cont2_shape2.png	2	2	2	2	1	2	0	0	0	0	0	0	0	0	0	0	0	0	1	2
313.6328125	0.0999942230719171	642320	277	3	stim03_sf1_pattern1_cont2_shape2.png	1	105	0	299.503992971502	299.603987194574	0.0999942230719171	stim03_sf1_pattern1_cont2_shape2.png	1	1	2	2	1	4	0	0	0	0	0	0	0	0	0	0	0	0	1	2
314.1328125	0.100015043472013	643344	278	0	stim00_sf1_pattern1_cont1_shape1.png	1	106	0	300.003964966598	300.10398001007	0.100015043472013	stim00_sf1_pattern1_cont1_shape1.png	1	1	1	1	1	3	0	0	0	0	0	0	0	0	0	0	0	0	1	2
314.6328125	0.0999942230737361	644368	279	11	stim11_sf2_pattern1_cont2_shape2.png	1	107	0	300.503971564611	300.603965787685	0.0999942230737361	stim11_sf2_pattern1_cont2_shape2.png	2	1	2	2	1	4	0	0	0	0	0	0	0	0	0	0	0	0	1	2
315.1328125	0.0999953960526909	645392	280	4	stim04_sf1_pattern2_cont1_shape1.png	1	108	0	301.003961740902	301.103957136955	0.0999953960526909	stim04_sf1_pattern2_cont1_shape1.png	1	2	1	1	1	1	0	0	0	0	0	0	0	0	0	0	0	0	1	2
315.6328125	0.0999939298271784	646416	281	9	stim09_sf2_pattern1_cont1_shape2.png	1	109	0	301.503950450966	301.603944380793	0.0999939298271784	stim09_sf2_pattern1_cont1_shape2.png	2	1	1	2	1	4	0	0	0	0	0	0	0	0	0	0	0	0	1	2
316.1328125	0.0999939298271784	647440	282	10	stim10_sf2_pattern1_cont2_shape1.png	1	110	0	302.003939161032	302.103933090859	0.0999939298271784	stim10_sf2_pattern1_cont2_shape1.png	2	1	2	1	1	3	0	0	0	0	0	0	0	0	0	0	0	0	1	2
316.6328125	0.0999789743291331	648464	283	7	stim07_sf1_pattern2_cont2_shape2.png	1	111	0	302.503942240104	302.603921214433	0.0999789743291331	stim07_sf1_pattern2_cont2_shape2.png	1	2	2	2	1	2	0	0	0	0	0	0	0	0	0	0	0	0	1	2
317.1328125	0.0999927568464045	649488	284	9	stim09_sf2_pattern1_cont1_shape2.png	1	112	0	303.003922739308	303.103915496155	0.0999927568464045	stim09_sf2_pattern1_cont1_shape2.png	2	1	1	2	1	4	0	0	0	0	0	0	0	0	0	0	0	0	1	2
317.6328125	0.0999904108866758	650512	285	5	stim05_sf1_pattern2_cont1_shape2.png	1	113	0	303.503911449372	303.603901860259	0.0999904108866758	stim05_sf1_pattern2_cont1_shape2.png	1	2	1	2	1	2	0	0	0	0	0	0	0	0	0	0	0	0	1	2
318.1328125	0.0999974487676809	651536	286	10	stim10_sf2_pattern1_cont2_shape1.png	1	114	0	304.003896347251	304.103893796018	0.0999974487676809	stim10_sf2_pattern1_cont2_shape1.png	2	1	2	1	1	3	0	0	0	0	0	0	0	0	0	0	0	0	1	2
318.6328125	0.0999918771121884	652560	287	3	stim03_sf1_pattern1_cont2_shape2.png	1	115	0	304.503888869502	304.603880746614	0.0999918771121884	stim03_sf1_pattern1_cont2_shape2.png	1	1	2	2	1	4	0	0	0	0	0	0	0	0	0	0	0	0	1	2
319.1328125	0.099969883731319	653584	288	2	stim02_sf1_pattern1_cont2_shape1.png	1	116	0	305.003875233606	305.103845117337	0.099969883731319	stim02_sf1_pattern1_cont2_shape1.png	1	1	2	1	1	3	0	0	0	0	0	0	0	0	0	0	0	0	1	2
319.6328125	0.0999948095613945	654608	289	7	stim07_sf1_pattern2_cont2_shape2.png	1	117	0	305.503865996387	305.603860805948	0.0999948095613945	stim07_sf1_pattern2_cont2_shape2.png	1	2	2	2	1	2	0	0	0	0	0	0	0	0	0	0	0	0	1	2
320.1328125	0.0999936365806207	655632	290	11	stim11_sf2_pattern1_cont2_shape2.png	1	118	0	306.003855292942	306.103848929522	0.0999936365806207	stim11_sf2_pattern1_cont2_shape2.png	2	1	2	2	1	4	0	0	0	0	0	0	0	0	0	0	0	0	1	2
320.6328125	0.0999948095613945	656656	291	1	stim01_sf1_pattern1_cont1_shape2.png	1	119	0	306.503843709761	306.603838519322	0.0999948095613945	stim01_sf1_pattern1_cont1_shape2.png	1	1	1	2	1	4	0	0	0	0	0	0	0	0	0	0	0	0	1	2
321.1328125	0.0999951028061332	657680	292	4	stim04_sf1_pattern2_cont1_shape1.png	1	120	0	307.003829487376	307.103824590182	0.0999951028061332	stim04_sf1_pattern2_cont1_shape1.png	1	2	1	1	1	1	0	0	0	0	0	0	0	0	0	0	0	0	1	2
321.6328125	0.100000087973967	658704	293	6	stim06_sf1_pattern2_cont2_shape1.png	1	121	0	307.503821423135	307.603821511109	0.100000087973967	stim06_sf1_pattern2_cont2_shape1.png	1	2	2	1	1	1	0	0	0	0	0	0	0	0	0	0	0	0	1	2
322.1328125	0.0999945163166558	659728	294	12	stim12_sf2_pattern2_cont1_shape1.png	1	122	0	308.003786673595	308.103781189911	0.0999945163166558	stim12_sf2_pattern2_cont1_shape1.png	2	2	1	1	1	1	0	0	0	0	0	0	0	0	0	0	0	0	1	2
322.6328125	0.100001260952922	660752	295	14	stim14_sf2_pattern2_cont2_shape1.png	1	123	0	308.503777436375	308.603778697328	0.100001260952922	stim14_sf2_pattern2_cont2_shape1.png	2	2	2	1	1	1	0	0	0	0	0	0	0	0	0	0	0	0	1	2
323.1328125	0.0999883581698668	661776	296	0	stim00_sf1_pattern1_cont1_shape1.png	1	124	0	309.003772304586	309.103760662756	0.0999883581698668	stim00_sf1_pattern1_cont1_shape1.png	1	1	1	1	1	3	0	0	0	0	0	0	0	0	0	0	0	0	1	2
323.6328125	0.0999956892974296	662800	297	8	stim08_sf2_pattern1_cont1_shape1.png	1	125	0	309.503762774122	309.60375846342	0.0999956892974296	stim08_sf2_pattern1_cont1_shape1.png	2	1	1	1	1	3	0	0	0	0	0	0	0	0	0	0	0	0	1	2
324.1328125	0.0999965690334648	663824	298	13	stim13_sf2_pattern2_cont1_shape2.png	1	126	0	310.003745032795	310.103741601828	0.0999965690334648	stim13_sf2_pattern2_cont1_shape2.png	2	2	1	2	1	2	0	0	0	0	0	0	0	0	0	0	0	0	1	2
324.6328125	0.0999948095613945	664848	299	15	stim15_sf2_pattern2_cont2_shape2.png	1	127	0	310.50373432935	310.603729138911	0.0999948095613945	stim15_sf2_pattern2_cont2_shape2.png	2	2	2	2	1	2	0	0	0	0	0	0	0	0	0	0	0	0	1	2
325.1328125	0.0999977420142386	665872	300	8	stim08_sf2_pattern1_cont1_shape1.png	1	128	0	311.003724798884	311.103722540898	0.0999977420142386	stim08_sf2_pattern1_cont1_shape1.png	2	1	1	1	1	3	0	0	0	0	0	0	0	0	0	0	0	0	1	2
325.6328125	0.0999109414733539	666896	301	13	stim13_sf2_pattern2_cont1_shape2.png	1	129	0	311.50380265545	311.603713596924	0.0999109414733539	stim13_sf2_pattern2_cont1_shape2.png	2	2	1	2	1	2	0	0	0	0	0	0	0	0	0	0	0	0	1	2
326.1328125	0.100000087973967	667920	302	4	stim04_sf1_pattern2_cont1_shape1.png	1	130	0	312.003732716501	312.103732804475	0.100000087973967	stim04_sf1_pattern2_cont1_shape1.png	1	2	1	1	1	1	0	0	0	0	0	0	0	0	0	0	0	0	1	2
326.6328125	0.0999992082397512	668944	303	15	stim15_sf2_pattern2_cont2_shape2.png	1	131	0	312.503719080605	312.603718288845	0.0999992082397512	stim15_sf2_pattern2_cont2_shape2.png	2	2	2	2	1	2	0	0	0	0	0	0	0	0	0	0	0	0	1	2
327.1328125	0.100000381218706	669968	304	9	stim09_sf2_pattern1_cont1_shape2.png	1	132	0	313.003712775837	313.103713157056	0.100000381218706	stim09_sf2_pattern1_cont1_shape2.png	2	1	1	2	1	4	0	0	0	0	0	0	0	0	0	0	0	0	1	2
327.6328125	0.10000155419948	670992	305	0	stim00_sf1_pattern1_cont1_shape1.png	1	133	0	313.503699433186	313.603700987385	0.10000155419948	stim00_sf1_pattern1_cont1_shape1.png	1	1	1	1	1	3	0	0	0	0	0	0	0	0	0	0	0	0	1	2
328.1328125	0.0999924636016658	672016	306	14	stim14_sf2_pattern2_cont2_shape1.png	1	134	0	314.003697820339	314.103690283941	0.0999924636016658	stim14_sf2_pattern2_cont2_shape1.png	2	2	2	1	1	1	0	0	0	0	0	0	0	0	0	0	0	0	1	2
328.6328125	0.0999997947292286	673040	307	5	stim05_sf1_pattern2_cont1_shape2.png	1	135	0	314.503671868149	314.603671662879	0.0999997947292286	stim05_sf1_pattern2_cont1_shape2.png	1	2	1	2	1	2	0	0	0	0	0	0	0	0	0	0	0	0	1	2
329.1328125	0.0999962757869071	674064	308	3	stim03_sf1_pattern1_cont2_shape2.png	1	136	0	315.003662337685	315.103658613472	0.0999962757869071	stim03_sf1_pattern1_cont2_shape2.png	1	1	2	2	1	4	0	0	0	0	0	0	0	0	0	0	0	0	1	2
329.63232421875	0.0999839594951482	675087	309	10	stim10_sf2_pattern1_cont2_shape1.png	1	137	0	315.503664537022	315.603648496517	0.0999839594951482	stim10_sf2_pattern1_cont2_shape1.png	2	1	2	1	1	3	0	0	0	0	0	0	0	0	0	0	0	0	1	2
330.13232421875	0.0999816135354195	676111	310	8	stim08_sf2_pattern1_cont1_shape1.png	1	138	1	316.003650607881	316.103632221417	0.0999816135354195	stim08_sf2_pattern1_cont1_shape1.png	2	1	1	1	1	3	0	0	0	0	0	0	0	0	0	0	0	0	1	2
330.63232421875	0.0999956892974296	677135	311	8	stim08_sf2_pattern1_cont1_shape1.png	1	139	1	316.503632866556	316.603628555853	0.0999956892974296	stim08_sf2_pattern1_cont1_shape1.png	2	1	1	1	1	3	0	0	0	0	0	0	0	0	0	0	0	0	1	2
331.13232421875	0.0999933433377009	678159	312	1	stim01_sf1_pattern1_cont1_shape2.png	1	140	2	317.0036227496	317.103616092938	0.0999933433377009	stim01_sf1_pattern1_cont1_shape2.png	1	1	1	2	1	4	0	0	0	0	0	0	0	0	0	0	0	0	1	2
331.63232421875	0.0999939298271784	679183	313	4	stim04_sf1_pattern2_cont1_shape1.png	1	141	2	317.503609700194	317.603603630021	0.0999939298271784	stim04_sf1_pattern2_cont1_shape1.png	1	2	1	1	1	1	0	0	0	0	0	0	0	0	0	0	0	0	1	2
332.13232421875	0.0999956892974296	680207	314	7	stim07_sf1_pattern2_cont2_shape2.png	1	142	0	318.00360016973	318.103595859027	0.0999956892974296	stim07_sf1_pattern2_cont2_shape2.png	1	2	2	2	1	2	0	0	0	0	0	0	0	0	0	0	0	0	1	2
332.63232421875	0.0999883581716858	681231	315	1	stim01_sf1_pattern1_cont1_shape2.png	1	143	0	318.50359327847	318.603581636642	0.0999883581716858	stim01_sf1_pattern1_cont1_shape2.png	1	1	1	2	1	4	0	0	0	0	0	0	0	0	0	0	0	0	1	2
333.13232421875	0.0999968622782035	682255	316	11	stim11_sf2_pattern1_cont2_shape2.png	1	144	0	319.003575830389	319.103572692668	0.0999968622782035	stim11_sf2_pattern1_cont2_shape2.png	2	1	2	2	1	4	0	0	0	0	0	0	0	0	0	0	0	0	1	2
333.63232421875	0.0999959825421683	683279	317	12	stim12_sf2_pattern2_cont1_shape1.png	1	145	0	319.503565420189	319.603561402731	0.0999959825421683	stim12_sf2_pattern2_cont1_shape1.png	2	2	1	1	1	1	0	0	0	0	0	0	0	0	0	0	0	0	1	2
334.13232421875	0.0999977420124196	684303	318	6	stim06_sf1_pattern2_cont2_shape1.png	1	146	0	320.003556476215	320.103554218227	0.0999977420124196	stim06_sf1_pattern2_cont2_shape1.png	1	2	2	1	1	1	0	0	0	0	0	0	0	0	0	0	0	0	1	2
334.63232421875	0.0999971555229422	685327	319	2	stim02_sf1_pattern1_cont2_shape1.png	1	147	0	320.503544893034	320.603542048557	0.0999971555229422	stim02_sf1_pattern1_cont2_shape1.png	1	1	2	1	1	3	0	0	0	0	0	0	0	0	0	0	0	0	1	2
335.13232421875	0.0999690039971028	686351	320	5	stim05_sf1_pattern2_cont1_shape2.png	1	148	0	321.003536242304	321.103505246301	0.0999690039971028	stim05_sf1_pattern2_cont1_shape2.png	1	2	1	2	1	2	0	0	0	0	0	0	0	0	0	0	0	0	1	2
335.63232421875	0.0999443714099471	687375	321	11	stim11_sf2_pattern1_cont2_shape2.png	1	149	0	321.503526418595	321.603470790005	0.0999443714099471	stim11_sf2_pattern1_cont2_shape2.png	2	1	2	2	1	4	0	0	0	0	0	0	0	0	0	0	0	0	1	2
336.13232421875	0.0999915838674497	688399	322	4	stim04_sf1_pattern2_cont1_shape1.png	1	150	0	322.00351688813	322.103508471997	0.0999915838674497	stim04_sf1_pattern2_cont1_shape1.png	1	2	1	1	1	1	0	0	0	0	0	0	0	0	0	0	0	0	1	2
336.63232421875	0.0999942230719171	689423	323	7	stim07_sf1_pattern2_cont2_shape2.png	1	151	0	322.503506184685	322.603500407757	0.0999942230719171	stim07_sf1_pattern2_cont2_shape2.png	1	2	2	2	1	2	0	0	0	0	0	0	0	0	0	0	0	0	1	2
337.13232421875	0.0999766283675854	690447	324	12	stim12_sf2_pattern2_cont1_shape1.png	1	152	0	323.003491082563	323.103467710931	0.0999766283675854	stim12_sf2_pattern2_cont1_shape1.png	2	2	1	1	1	1	0	0	0	0	0	0	0	0	0	0	0	0	1	2
337.63232421875	0.0999593269079924	691471	325	14	stim14_sf2_pattern2_cont2_shape1.png	1	153	0	323.503478912893	323.603438239801	0.0999593269079924	stim14_sf2_pattern2_cont2_shape1.png	2	2	2	1	1	1	0	0	0	0	0	0	0	0	0	0	0	0	1	2
338.13232421875	0.0999751621420728	692495	326	1	stim01_sf1_pattern1_cont1_shape2.png	1	154	0	324.00347407435	324.103449236492	0.0999751621420728	stim01_sf1_pattern1_cont1_shape2.png	1	1	1	2	1	4	0	0	0	0	0	0	0	0	0	0	0	0	1	2
338.63232421875	0.0999736959165602	693519	327	6	stim06_sf1_pattern2_cont2_shape1.png	1	155	0	324.50346249117	324.603436187086	0.0999736959165602	stim06_sf1_pattern2_cont2_shape1.png	1	2	2	1	1	1	0	0	0	0	0	0	0	0	0	0	0	0	1	2
339.13232421875	0.0999716432015703	694543	328	9	stim09_sf2_pattern1_cont1_shape2.png	1	156	0	325.003448562029	325.103420205231	0.0999716432015703	stim09_sf2_pattern1_cont1_shape2.png	2	1	1	2	1	4	0	0	0	0	0	0	0	0	0	0	0	0	1	2
339.63232421875	0.100002433935515	695567	329	3	stim03_sf1_pattern1_cont2_shape2.png	1	157	0	325.503413519242	325.603415953177	0.100002433935515	stim03_sf1_pattern1_cont2_shape2.png	1	1	2	2	1	4	0	0	0	0	0	0	0	0	0	0	0	0	1	2
340.13232421875	0.0999939298271784	696591	330	2	stim02_sf1_pattern1_cont2_shape1.png	1	158	0	326.003409267189	326.103403197016	0.0999939298271784	stim02_sf1_pattern1_cont2_shape1.png	1	1	2	1	1	3	0	0	0	0	0	0	0	0	0	0	0	0	1	2
340.63232421875	0.0999728161823441	697615	331	0	stim00_sf1_pattern1_cont1_shape1.png	1	159	0	326.503413225997	326.603386042179	0.0999728161823441	stim00_sf1_pattern1_cont1_shape1.png	1	1	1	1	1	3	0	0	0	0	0	0	0	0	0	0	0	0	1	2
341.13232421875	0.100002727178435	698639	332	13	stim13_sf2_pattern2_cont1_shape2.png	1	160	0	327.003403988778	327.103406715956	0.100002727178435	stim13_sf2_pattern2_cont1_shape2.png	2	2	1	2	1	2	0	0	0	0	0	0	0	0	0	0	0	0	1	2
341.63232421875	0.100029998971877	699663	333	10	stim10_sf2_pattern1_cont2_shape1.png	1	161	0	327.503371878442	327.603401877413	0.100029998971877	stim10_sf2_pattern1_cont2_shape1.png	2	1	2	1	1	3	0	0	0	0	0	0	0	0	0	0	0	0	1	2
342.13232421875	0.100007125854972	700687	334	8	stim08_sf2_pattern1_cont1_shape1.png	1	162	0	328.003391085995	328.10339821185	0.100007125854972	stim08_sf2_pattern1_cont1_shape1.png	2	1	1	1	1	3	0	0	0	0	0	0	0	0	0	0	0	0	1	2
342.63232421875	0.0999997947274096	701711	335	15	stim15_sf2_pattern2_cont2_shape2.png	1	163	0	328.503375690629	328.603375485356	0.0999997947274096	stim15_sf2_pattern2_cont2_shape2.png	2	2	2	2	1	2	0	0	0	0	0	0	0	0	0	0	0	0	1	2
352.82373046875	0.0999936365824396	722583	336	11	stim11_sf2_pattern1_cont2_shape2.png	2	0	0	338.694832757938	338.79482639452	0.0999936365824396	stim11_sf2_pattern1_cont2_shape2.png	2	1	2	2	1	4	0	0	0	0	0	0	0	0	0	0	0	0	1	2
353.32373046875	0.099969883731319	723607	337	3	stim03_sf1_pattern1_cont2_shape2.png	2	1	0	339.194848739793	339.294818623524	0.099969883731319	stim03_sf1_pattern1_cont2_shape2.png	1	1	2	2	1	4	0	0	0	0	0	0	0	0	0	0	0	0	1	2
353.82373046875	0.100056391025646	724631	338	2	stim02_sf1_pattern1_cont2_shape1.png	2	2	0	339.694784079256	339.794840470282	0.100056391025646	stim02_sf1_pattern1_cont2_shape1.png	1	1	2	1	1	3	0	0	0	0	0	0	0	0	0	0	0	0	1	2
354.32373046875	0.0999956892974296	725655	339	9	stim09_sf2_pattern1_cont1_shape2.png	2	3	0	340.19479360972	340.294789299018	0.0999956892974296	stim09_sf2_pattern1_cont1_shape2.png	2	1	1	2	1	4	0	0	0	0	0	0	0	0	0	0	0	0	1	2
354.82373046875	0.0999942230719171	726679	340	10	stim10_sf2_pattern1_cont2_shape1.png	2	4	0	340.694792876608	340.79478709968	0.0999942230719171	stim10_sf2_pattern1_cont2_shape1.png	2	1	2	1	1	3	0	0	0	0	0	0	0	0	0	0	0	0	1	2
355.32373046875	0.0999933433377009	727703	341	0	stim00_sf1_pattern1_cont1_shape1.png	2	5	0	341.194776308261	341.294769651598	0.0999933433377009	stim00_sf1_pattern1_cont1_shape1.png	1	1	1	1	1	3	0	0	0	0	0	0	0	0	0	0	0	0	1	2
355.82373046875	0.100015043472013	728727	342	8	stim08_sf2_pattern1_cont1_shape1.png	2	6	0	341.694742731701	341.794757775173	0.100015043472013	stim08_sf2_pattern1_cont1_shape1.png	2	1	1	1	1	3	0	0	0	0	0	0	0	0	0	0	0	0	1	2
356.3232421875	0.0999965690316458	729750	343	5	stim05_sf1_pattern2_cont1_shape2.png	2	7	0	342.194751675675	342.294748244707	0.0999965690316458	stim05_sf1_pattern2_cont1_shape2.png	1	2	1	2	1	2	0	0	0	0	0	0	0	0	0	0	0	0	1	2
356.8232421875	0.0999968622782035	730774	344	12	stim12_sf2_pattern2_cont1_shape1.png	2	8	0	342.694739506005	342.794736368283	0.0999968622782035	stim12_sf2_pattern2_cont1_shape1.png	2	2	1	1	1	1	0	0	0	0	0	0	0	0	0	0	0	0	1	2
357.3232421875	0.0999974487676809	731798	345	4	stim04_sf1_pattern2_cont1_shape1.png	2	9	0	343.194729682295	343.294727131062	0.0999974487676809	stim04_sf1_pattern2_cont1_shape1.png	1	2	1	1	1	1	0	0	0	0	0	0	0	0	0	0	0	0	1	2
357.8232421875	0.0999942230719171	732822	346	1	stim01_sf1_pattern1_cont1_shape2.png	2	10	0	343.69472073832	343.794714961392	0.0999942230719171	stim01_sf1_pattern1_cont1_shape2.png	1	1	1	2	1	4	0	0	0	0	0	0	0	0	0	0	0	0	1	2
358.3232421875	0.0999945163166558	733846	347	13	stim13_sf2_pattern2_cont1_shape2.png	2	11	0	344.19471032812	344.294704844437	0.0999945163166558	stim13_sf2_pattern2_cont1_shape2.png	2	2	1	2	1	2	0	0	0	0	0	0	0	0	0	0	0	0	1	2
358.8232421875	0.100000674463445	734870	348	7	stim07_sf1_pattern2_cont2_shape2.png	2	12	0	344.694694346264	344.794695020728	0.100000674463445	stim07_sf1_pattern2_cont2_shape2.png	1	2	2	2	1	2	0	0	0	0	0	0	0	0	0	0	0	0	1	2
359.3232421875	0.0999948095613945	735894	349	6	stim06_sf1_pattern2_cont2_shape1.png	2	13	0	345.194688627986	345.294683437547	0.0999948095613945	stim06_sf1_pattern2_cont2_shape1.png	1	2	2	1	1	1	0	0	0	0	0	0	0	0	0	0	0	0	1	2
359.8232421875	0.0999965690334648	736918	350	15	stim15_sf2_pattern2_cont2_shape2.png	2	14	0	345.694674405599	345.794670974632	0.0999965690334648	stim15_sf2_pattern2_cont2_shape2.png	2	2	2	2	1	2	0	0	0	0	0	0	0	0	0	0	0	0	1	2
360.3232421875	0.0999936365824396	737942	351	14	stim14_sf2_pattern2_cont2_shape1.png	2	15	0	346.19466692785	346.294660564432	0.0999936365824396	stim14_sf2_pattern2_cont2_shape1.png	2	2	2	1	1	1	0	0	0	0	0	0	0	0	0	0	0	0	1	2
360.8232421875	0.0999728161823441	738966	352	5	stim05_sf1_pattern2_cont1_shape2.png	2	16	0	346.69465417169	346.794626987872	0.0999728161823441	stim05_sf1_pattern2_cont1_shape2.png	1	2	1	2	1	2	0	0	0	0	0	0	0	0	0	0	0	0	1	2
361.3232421875	0.0999953960526909	739990	353	11	stim11_sf2_pattern1_cont2_shape2.png	2	17	0	347.19464728043	347.294642676483	0.0999953960526909	stim11_sf2_pattern1_cont2_shape2.png	2	1	2	2	1	4	0	0	0	0	0	0	0	0	0	0	0	0	1	2
361.8232421875	0.0999974487676809	741014	354	2	stim02_sf1_pattern1_cont2_shape1.png	2	18	0	347.694632471554	347.794629920321	0.0999974487676809	stim02_sf1_pattern1_cont2_shape1.png	1	1	2	1	1	3	0	0	0	0	0	0	0	0	0	0	0	0	1	2
362.3232421875	0.0999959825439873	742038	355	0	stim00_sf1_pattern1_cont1_shape1.png	2	19	0	348.194623820824	348.294619803368	0.0999959825439873	stim00_sf1_pattern1_cont1_shape1.png	1	1	1	1	1	3	0	0	0	0	0	0	0	0	0	0	0	0	1	2
362.8232421875	0.0999989149931935	743062	356	10	stim10_sf2_pattern1_cont2_shape1.png	2	20	1	348.694613117379	348.794612032372	0.0999989149931935	stim10_sf2_pattern1_cont2_shape1.png	2	1	2	1	1	3	0	0	0	0	0	0	0	0	0	0	0	0	1	2
363.3232421875	0.0999951028079522	744086	357	10	stim10_sf2_pattern1_cont2_shape1.png	2	21	1	349.19458305976	349.294578162568	0.0999951028079522	stim10_sf2_pattern1_cont2_shape1.png	2	1	2	1	1	3	0	0	0	0	0	0	0	0	0	0	0	0	1	2
363.8232421875	0.0999766283675854	745110	358	4	stim04_sf1_pattern2_cont1_shape1.png	2	22	2	349.694592003734	349.794568632102	0.0999766283675854	stim04_sf1_pattern2_cont1_shape1.png	1	2	1	1	1	1	0	0	0	0	0	0	0	0	0	0	0	0	1	2
364.3232421875	0.0999874784338317	746134	359	5	stim05_sf1_pattern2_cont1_shape2.png	2	23	2	350.194563119096	350.294550597529	0.0999874784338317	stim05_sf1_pattern2_cont1_shape2.png	1	2	1	2	1	2	0	0	0	0	0	0	0	0	0	0	0	0	1	2
364.8232421875	0.0999716432015703	747158	360	14	stim14_sf2_pattern2_cont2_shape1.png	2	24	0	350.694567371149	350.79453901435	0.0999716432015703	stim14_sf2_pattern2_cont2_shape1.png	2	2	2	1	1	1	0	0	0	0	0	0	0	0	0	0	0	0	1	2
365.3232421875	0.0999918771121884	748182	361	8	stim08_sf2_pattern1_cont1_shape1.png	2	25	0	351.194537900019	351.294529777131	0.0999918771121884	stim08_sf2_pattern1_cont1_shape1.png	2	1	1	1	1	3	0	0	0	0	0	0	0	0	0	0	0	0	1	2
365.8232421875	0.0999616728695401	749206	362	12	stim12_sf2_pattern2_cont1_shape1.png	2	26	0	351.694557987306	351.794519660176	0.0999616728695401	stim12_sf2_pattern2_cont1_shape1.png	2	2	1	1	1	1	0	0	0	0	0	0	0	0	0	0	0	0	1	2
366.3232421875	0.0999907041314145	750230	363	15	stim15_sf2_pattern2_cont2_shape2.png	2	27	0	352.1945182526	352.294508956731	0.0999907041314145	stim15_sf2_pattern2_cont2_shape2.png	2	2	2	2	1	2	0	0	0	0	0	0	0	0	0	0	0	0	1	2
366.8232421875	0.0999995014844899	751254	364	3	stim03_sf1_pattern1_cont2_shape2.png	2	28	0	352.694528369553	352.794527871038	0.0999995014844899	stim03_sf1_pattern1_cont2_shape2.png	1	1	2	2	1	4	0	0	0	0	0	0	0	0	0	0	0	0	1	2
367.3232421875	0.10001944214855	752278	365	7	stim07_sf1_pattern2_cont2_shape2.png	2	29	0	353.194506522796	353.294525964944	0.10001944214855	stim07_sf1_pattern2_cont2_shape2.png	1	2	2	2	1	2	0	0	0	0	0	0	0	0	0	0	0	0	1	2
367.8232421875	0.0999989149931935	753302	366	9	stim09_sf2_pattern1_cont1_shape2.png	2	30	0	353.69451194783	353.794510862823	0.0999989149931935	stim09_sf2_pattern1_cont1_shape2.png	2	1	1	2	1	4	0	0	0	0	0	0	0	0	0	0	0	0	1	2
368.3232421875	0.100013284001761	754326	367	1	stim01_sf1_pattern1_cont1_shape2.png	2	31	0	354.194517372864	354.294530656865	0.100013284001761	stim01_sf1_pattern1_cont1_shape2.png	1	1	1	2	1	4	0	0	0	0	0	0	0	0	0	0	0	0	1	2
368.8232421875	0.100017975923038	755350	368	10	stim10_sf2_pattern1_cont2_shape1.png	2	32	0	354.694495819351	354.794513795274	0.100017975923038	stim10_sf2_pattern1_cont2_shape1.png	2	1	2	1	1	3	0	0	0	0	0	0	0	0	0	0	0	0	1	2
369.3232421875	0.100005073139982	756374	369	6	stim06_sf1_pattern2_cont2_shape1.png	2	33	0	355.194475438819	355.294480511959	0.100005073139982	stim06_sf1_pattern2_cont2_shape1.png	1	2	2	1	1	1	0	0	0	0	0	0	0	0	0	0	0	0	1	2
369.8232421875	0.0999986217484548	757398	370	13	stim13_sf2_pattern2_cont1_shape2.png	2	34	0	355.694462975904	355.794461597652	0.0999986217484548	stim13_sf2_pattern2_cont1_shape2.png	2	2	1	2	1	2	0	0	0	0	0	0	0	0	0	0	0	0	1	2
370.3232421875	0.0999458376354596	758422	371	4	stim04_sf1_pattern2_cont1_shape1.png	2	35	0	356.194464002261	356.294409839897	0.0999458376354596	stim04_sf1_pattern2_cont1_shape1.png	1	2	1	1	1	1	0	0	0	0	0	0	0	0	0	0	0	0	1	2
370.8232421875	0.0999722296910477	759446	372	15	stim15_sf2_pattern2_cont2_shape2.png	2	36	0	356.694442155504	356.794414385195	0.0999722296910477	stim15_sf2_pattern2_cont2_shape2.png	2	2	2	2	1	2	0	0	0	0	0	0	0	0	0	0	0	0	1	2
371.3232421875	0.0999959825421683	760470	373	12	stim12_sf2_pattern2_cont1_shape1.png	2	37	0	357.194433798019	357.294429780561	0.0999959825421683	stim12_sf2_pattern2_cont1_shape1.png	2	2	1	1	1	1	0	0	0	0	0	0	0	0	0	0	0	0	1	2
371.8232421875	0.0999971555211232	761494	374	9	stim09_sf2_pattern1_cont1_shape2.png	2	38	0	357.694420748614	357.794417904135	0.0999971555211232	stim09_sf2_pattern1_cont1_shape2.png	2	1	1	2	1	4	0	0	0	0	0	0	0	0	0	0	0	0	1	2
372.3232421875	0.0999690039952839	762518	375	11	stim11_sf2_pattern1_cont2_shape2.png	2	39	0	358.194412097884	358.294381101879	0.0999690039952839	stim11_sf2_pattern1_cont2_shape2.png	2	1	2	2	1	4	0	0	0	0	0	0	0	0	0	0	0	0	1	2
372.8232421875	0.099998328503716	763542	376	8	stim08_sf2_pattern1_cont1_shape1.png	2	40	0	358.694397289008	358.794395617511	0.099998328503716	stim08_sf2_pattern1_cont1_shape1.png	2	1	1	1	1	3	0	0	0	0	0	0	0	0	0	0	0	0	1	2
373.3232421875	0.0999939298271784	764566	377	10	stim10_sf2_pattern1_cont2_shape1.png	2	41	0	359.194390690993	359.29438462082	0.0999939298271784	stim10_sf2_pattern1_cont2_shape1.png	2	1	2	1	1	3	0	0	0	0	0	0	0	0	0	0	0	0	1	2
373.82275390625	0.0999945163166558	765589	378	6	stim06_sf1_pattern2_cont2_shape1.png	2	42	0	359.694380867284	359.794375383601	0.0999945163166558	stim06_sf1_pattern2_cont2_shape1.png	1	2	2	1	1	1	0	0	0	0	0	0	0	0	0	0	0	0	1	2
374.32275390625	0.099989237905902	766613	379	2	stim02_sf1_pattern1_cont2_shape1.png	2	43	0	360.194376321984	360.29436555989	0.099989237905902	stim02_sf1_pattern1_cont2_shape1.png	1	1	2	1	1	3	0	0	0	0	0	0	0	0	0	0	0	0	1	2
374.82275390625	0.100000674463445	767637	380	1	stim01_sf1_pattern1_cont1_shape2.png	2	44	0	360.694358287414	360.794358961877	0.100000674463445	stim01_sf1_pattern1_cont1_shape2.png	1	1	1	2	1	4	0	0	0	0	0	0	0	0	0	0	0	0	1	2
375.32275390625	0.0999942230719171	768661	381	7	stim07_sf1_pattern2_cont2_shape2.png	2	45	0	361.194348756948	361.29434298002	0.0999942230719171	stim07_sf1_pattern2_cont2_shape2.png	1	2	2	2	1	2	0	0	0	0	0	0	0	0	0	0	0	0	1	2
375.82275390625	0.0999951028079522	769685	382	0	stim00_sf1_pattern1_cont1_shape1.png	2	46	0	361.694338346748	361.794333449556	0.0999951028079522	stim00_sf1_pattern1_cont1_shape1.png	1	1	1	1	1	3	0	0	0	0	0	0	0	0	0	0	0	0	1	2
376.32275390625	0.0999962757887261	770709	383	4	stim04_sf1_pattern2_cont1_shape1.png	2	47	0	362.194326177078	362.294322452866	0.0999962757887261	stim04_sf1_pattern2_cont1_shape1.png	1	2	1	1	1	1	0	0	0	0	0	0	0	0	0	0	0	0	1	2
376.82275390625	0.0999713499568315	771733	384	13	stim13_sf2_pattern2_cont1_shape2.png	2	48	0	362.694316060122	362.794287410079	0.0999713499568315	stim13_sf2_pattern2_cont1_shape2.png	2	2	1	2	1	2	0	0	0	0	0	0	0	0	0	0	0	0	1	2
377.32275390625	0.0999962757869071	772757	385	14	stim14_sf2_pattern2_cont2_shape1.png	2	49	0	363.194305943169	363.294302218956	0.0999962757869071	stim14_sf2_pattern2_cont2_shape1.png	2	2	2	1	1	1	0	0	0	0	0	0	0	0	0	0	0	0	1	2
377.82275390625	0.0999980352571583	773781	386	3	stim03_sf1_pattern1_cont2_shape2.png	2	50	0	363.694294359988	363.794292395245	0.0999980352571583	stim03_sf1_pattern1_cont2_shape2.png	1	1	2	2	1	4	0	0	0	0	0	0	0	0	0	0	0	0	1	2
378.32275390625	0.099981027044123	774805	387	5	stim05_sf1_pattern2_cont1_shape2.png	2	51	0	364.194282776807	364.294263803851	0.099981027044123	stim05_sf1_pattern2_cont1_shape2.png	1	2	1	2	1	2	0	0	0	0	0	0	0	0	0	0	0	0	1	2
378.82275390625	0.0999789743273141	775829	388	3	stim03_sf1_pattern1_cont2_shape2.png	2	52	0	364.694272953098	364.794251927426	0.0999789743273141	stim03_sf1_pattern1_cont2_shape2.png	1	1	2	2	1	4	0	0	0	0	0	0	0	0	0	0	0	0	1	2
379.32275390625	0.0999883581716858	776853	389	2	stim02_sf1_pattern1_cont2_shape1.png	2	53	0	365.194246121173	365.294234479345	0.0999883581716858	stim02_sf1_pattern1_cont2_shape1.png	1	1	2	1	1	3	0	0	0	0	0	0	0	0	0	0	0	0	1	2
379.82275390625	0.0999707634673541	777877	390	15	stim15_sf2_pattern2_cont2_shape2.png	2	54	0	365.694254771903	365.79422553537	0.0999707634673541	stim15_sf2_pattern2_cont2_shape2.png	2	2	2	2	1	2	0	0	0	0	0	0	0	0	0	0	0	0	1	2
380.32275390625	0.0999948095632135	778901	391	14	stim14_sf2_pattern2_cont2_shape1.png	2	55	0	366.194217089911	366.294211899474	0.0999948095632135	stim14_sf2_pattern2_cont2_shape1.png	2	2	2	1	1	1	0	0	0	0	0	0	0	0	0	0	0	0	1	2
380.82275390625	0.0999760418781079	779925	392	1	stim01_sf1_pattern1_cont1_shape2.png	2	56	0	366.694228379847	366.794204421725	0.0999760418781079	stim01_sf1_pattern1_cont1_shape2.png	1	1	1	2	1	4	0	0	0	0	0	0	0	0	0	0	0	0	1	2
381.32275390625	0.0999956892974296	780949	393	0	stim00_sf1_pattern1_cont1_shape1.png	2	57	0	367.194196562757	367.294192252055	0.0999956892974296	stim00_sf1_pattern1_cont1_shape1.png	1	1	1	1	1	3	0	0	0	0	0	0	0	0	0	0	0	0	1	2
381.82275390625	0.0999956892974296	781973	394	12	stim12_sf2_pattern2_cont1_shape1.png	2	58	0	367.694207266202	367.7942029555	0.0999956892974296	stim12_sf2_pattern2_cont1_shape1.png	2	2	1	1	1	1	0	0	0	0	0	0	0	0	0	0	0	0	1	2
382.32275390625	0.0999924636016658	782997	395	11	stim11_sf2_pattern1_cont2_shape2.png	2	59	0	368.194206826334	368.294199289936	0.0999924636016658	stim11_sf2_pattern1_cont2_shape2.png	2	1	2	2	1	4	0	0	0	0	0	0	0	0	0	0	0	0	1	2
382.82275390625	0.0999992082379322	784021	396	7	stim07_sf1_pattern2_cont2_shape2.png	2	60	0	368.694192897194	368.794192105432	0.0999992082379322	stim07_sf1_pattern2_cont2_shape2.png	1	2	2	2	1	2	0	0	0	0	0	0	0	0	0	0	0	0	1	2
383.32275390625	0.100006832610234	785045	397	4	stim04_sf1_pattern2_cont1_shape1.png	2	61	0	369.194177795072	369.294184627683	0.100006832610234	stim04_sf1_pattern2_cont1_shape1.png	1	2	1	1	1	1	0	0	0	0	0	0	0	0	0	0	0	0	1	2
383.82275390625	0.100017389431741	786069	398	10	stim10_sf2_pattern1_cont2_shape1.png	2	62	0	369.694171490304	369.794188879736	0.100017389431741	stim10_sf2_pattern1_cont2_shape1.png	2	1	2	1	1	3	0	0	0	0	0	0	0	0	0	0	0	0	1	2
384.32275390625	0.0999953960526909	787093	399	9	stim09_sf2_pattern1_cont1_shape2.png	2	63	0	370.194165772024	370.294161168076	0.0999953960526909	stim09_sf2_pattern1_cont1_shape2.png	2	1	1	2	1	4	0	0	0	0	0	0	0	0	0	0	0	0	1	2
384.82275390625	0.0999951028061332	788117	400	13	stim13_sf2_pattern2_cont1_shape2.png	2	64	0	370.694147737453	370.794142840259	0.0999951028061332	stim13_sf2_pattern2_cont1_shape2.png	2	2	1	2	1	2	0	0	0	0	0	0	0	0	0	0	0	0	1	2
385.32275390625	0.100005366384721	789141	401	6	stim06_sf1_pattern2_cont2_shape1.png	2	65	0	371.194135861027	371.294141227412	0.100005366384721	stim06_sf1_pattern2_cont2_shape1.png	1	2	2	1	1	1	0	0	0	0	0	0	0	0	0	0	0	0	1	2
385.82275390625	0.0999959825421683	790165	402	8	stim08_sf2_pattern1_cont1_shape1.png	2	66	0	371.694124864338	371.79412084688	0.0999959825421683	stim08_sf2_pattern1_cont1_shape1.png	2	1	1	1	1	3	0	0	0	0	0	0	0	0	0	0	0	0	1	2
386.32275390625	0.0999965690334648	791189	403	5	stim05_sf1_pattern2_cont1_shape2.png	2	67	0	372.194112694666	372.294109263699	0.0999965690334648	stim05_sf1_pattern2_cont1_shape2.png	1	2	1	2	1	2	0	0	0	0	0	0	0	0	0	0	0	0	1	2
386.82275390625	0.0999939298271784	792213	404	2	stim02_sf1_pattern1_cont2_shape1.png	2	68	0	372.694106389898	372.794100319725	0.0999939298271784	stim02_sf1_pattern1_cont2_shape1.png	1	1	2	1	1	3	0	0	0	0	0	0	0	0	0	0	0	0	1	2
387.32275390625	0.0999499430654396	793237	405	4	stim04_sf1_pattern2_cont1_shape1.png	2	69	0	373.194095393208	373.294045336273	0.0999499430654396	stim04_sf1_pattern2_cont1_shape1.png	1	2	1	1	1	1	0	0	0	0	0	0	0	0	0	0	0	0	1	2
387.82275390625	0.100040262548646	794261	406	5	stim05_sf1_pattern2_cont1_shape2.png	2	70	0	373.694040703002	373.79408096555	0.100040262548646	stim05_sf1_pattern2_cont1_shape2.png	1	2	1	2	1	2	0	0	0	0	0	0	0	0	0	0	0	0	1	2
388.32275390625	0.100010351550736	795285	407	11	stim11_sf2_pattern1_cont2_shape2.png	2	71	0	374.194071347112	374.294081698663	0.100010351550736	stim11_sf2_pattern1_cont2_shape2.png	2	1	2	2	1	4	0	0	0	0	0	0	0	0	0	0	0	0	1	2
388.82275390625	0.100037916587098	796309	408	14	stim14_sf2_pattern2_cont2_shape1.png	2	72	0	374.694021348827	374.794059265414	0.100037916587098	stim14_sf2_pattern2_cont2_shape1.png	2	2	2	1	1	1	0	0	0	0	0	0	0	0	0	0	0	0	1	2
389.32275390625	0.0999965690334648	797333	409	10	stim10_sf2_pattern1_cont2_shape1.png	2	73	0	375.194050819957	375.29404738899	0.0999965690334648	stim10_sf2_pattern1_cont2_shape1.png	2	1	2	1	1	3	0	0	0	0	0	0	0	0	0	0	0	0	1	2
389.82275390625	0.0999974487676809	798357	410	15	stim15_sf2_pattern2_cont2_shape2.png	2	74	0	375.694040116512	375.79403756528	0.0999974487676809	stim15_sf2_pattern2_cont2_shape2.png	2	2	2	2	1	2	0	0	0	0	0	0	0	0	0	0	0	0	1	2
390.32275390625	0.0999845459846256	799381	411	7	stim07_sf1_pattern2_cont2_shape2.png	2	75	0	376.19404290234	376.294027448324	0.0999845459846256	stim07_sf1_pattern2_cont2_shape2.png	1	2	2	2	1	2	0	0	0	0	0	0	0	0	0	0	0	0	1	2
390.82275390625	0.0999956892974296	800405	412	6	stim06_sf1_pattern2_cont2_shape1.png	2	76	0	376.694021348827	376.794017038124	0.0999956892974296	stim06_sf1_pattern2_cont2_shape1.png	1	2	2	1	1	1	0	0	0	0	0	0	0	0	0	0	0	0	1	2
391.322265625	0.0999980352571583	801428	413	1	stim01_sf1_pattern1_cont1_shape2.png	2	77	0	377.194008885912	377.294006921169	0.0999980352571583	stim01_sf1_pattern1_cont1_shape2.png	1	1	1	2	1	4	0	0	0	0	0	0	0	0	0	0	0	0	1	2
391.822265625	0.0999942230737361	802452	414	0	stim00_sf1_pattern1_cont1_shape1.png	2	78	0	377.693999355446	377.79399357852	0.0999942230737361	stim00_sf1_pattern1_cont1_shape1.png	1	1	1	1	1	3	0	0	0	0	0	0	0	0	0	0	0	0	1	2
392.322265625	0.0999953960526909	803476	415	13	stim13_sf2_pattern2_cont1_shape2.png	2	79	0	378.193988358757	378.293983754809	0.0999953960526909	stim13_sf2_pattern2_cont1_shape2.png	2	2	1	2	1	2	0	0	0	0	0	0	0	0	0	0	0	0	1	2
392.822265625	0.100005366384721	804500	416	9	stim09_sf2_pattern1_cont1_shape2.png	2	80	0	378.693976189086	378.793981555471	0.100005366384721	stim09_sf2_pattern1_cont1_shape2.png	2	1	1	2	1	4	0	0	0	0	0	0	0	0	0	0	0	0	1	2
393.322265625	0.0999986217466358	805524	417	8	stim08_sf2_pattern1_cont1_shape1.png	2	81	0	379.193966658622	379.293965280369	0.0999986217466358	stim08_sf2_pattern1_cont1_shape1.png	2	1	1	1	1	3	0	0	0	0	0	0	0	0	0	0	0	0	1	2
393.822265625	0.0999907041314145	806548	418	3	stim03_sf1_pattern1_cont2_shape2.png	2	82	0	379.693952436235	379.793943140367	0.0999907041314145	stim03_sf1_pattern1_cont2_shape2.png	1	1	2	2	1	4	0	0	0	0	0	0	0	0	0	0	0	0	1	2
394.322265625	0.0999968622782035	807572	419	12	stim12_sf2_pattern2_cont1_shape1.png	2	83	0	380.193921205635	380.293918067913	0.0999968622782035	stim12_sf2_pattern2_cont1_shape1.png	2	2	1	1	1	1	0	0	0	0	0	0	0	0	0	0	0	0	1	2
394.822265625	0.0999977420142386	808596	420	15	stim15_sf2_pattern2_cont2_shape2.png	2	84	0	380.693909035965	380.793906777979	0.0999977420142386	stim15_sf2_pattern2_cont2_shape2.png	2	2	2	2	1	2	0	0	0	0	0	0	0	0	0	0	0	0	1	2
395.322265625	0.0999801473080879	809620	421	14	stim14_sf2_pattern2_cont2_shape1.png	2	85	0	381.193923551597	381.293903698905	0.0999801473080879	stim14_sf2_pattern2_cont2_shape1.png	2	2	2	1	1	1	0	0	0	0	0	0	0	0	0	0	0	0	1	2
395.822265625	0.099985132474103	810644	422	6	stim06_sf1_pattern2_cont2_shape1.png	2	86	0	381.693909622456	381.79389475493	0.099985132474103	stim06_sf1_pattern2_cont2_shape1.png	1	2	2	1	1	1	0	0	0	0	0	0	0	0	0	0	0	0	1	2
396.322265625	0.0999953960526909	811668	423	8	stim08_sf2_pattern1_cont1_shape1.png	2	87	0	382.193880151326	382.293875547379	0.0999953960526909	stim08_sf2_pattern1_cont1_shape1.png	2	1	1	1	1	3	0	0	0	0	0	0	0	0	0	0	0	0	1	2
396.822265625	0.0999763351228466	812692	424	3	stim03_sf1_pattern1_cont2_shape2.png	2	88	0	382.693888802056	382.793865137179	0.0999763351228466	stim03_sf1_pattern1_cont2_shape2.png	1	1	2	2	1	4	0	0	0	0	0	0	0	0	0	0	0	0	1	2
397.322265625	0.100010351552555	813716	425	9	stim09_sf2_pattern1_cont1_shape2.png	2	89	0	383.193858744435	383.293869095987	0.100010351552555	stim09_sf2_pattern1_cont1_shape2.png	2	1	1	2	1	4	0	0	0	0	0	0	0	0	0	0	0	0	1	2
397.822265625	0.0999977420124196	814740	426	13	stim13_sf2_pattern2_cont1_shape2.png	2	90	0	383.693876192518	383.79387393453	0.0999977420124196	stim13_sf2_pattern2_cont1_shape2.png	2	2	1	2	1	2	0	0	0	0	0	0	0	0	0	0	0	0	1	2
398.322265625	0.0999778013483592	815764	427	2	stim02_sf1_pattern1_cont2_shape1.png	2	91	0	384.193890121658	384.293867923006	0.0999778013483592	stim02_sf1_pattern1_cont2_shape1.png	1	1	2	1	1	3	0	0	0	0	0	0	0	0	0	0	0	0	1	2
398.822265625	0.10001768267648	816788	428	5	stim05_sf1_pattern2_cont1_shape2.png	2	92	0	384.693853319402	384.793871002079	0.10001768267648	stim05_sf1_pattern2_cont1_shape2.png	1	2	1	2	1	2	0	0	0	0	0	0	0	0	0	0	0	0	1	2
399.322265625	0.10001533671857	817812	429	1	stim01_sf1_pattern1_cont1_shape2.png	2	93	0	385.193831179398	385.293846516117	0.10001533671857	stim01_sf1_pattern1_cont1_shape2.png	1	1	1	2	1	4	0	0	0	0	0	0	0	0	0	0	0	0	1	2
399.822265625	0.0999971555229422	818836	430	4	stim04_sf1_pattern2_cont1_shape1.png	2	94	0	385.693839243639	385.793836399162	0.0999971555229422	stim04_sf1_pattern2_cont1_shape1.png	1	2	1	1	1	1	0	0	0	0	0	0	0	0	0	0	0	0	1	2
400.322265625	0.0999953960508719	819860	431	11	stim11_sf2_pattern1_cont2_shape2.png	2	95	0	386.193821795558	386.293817191608	0.0999953960508719	stim11_sf2_pattern1_cont2_shape2.png	2	1	2	2	1	4	0	0	0	0	0	0	0	0	0	0	0	0	1	2
400.822265625	0.100002140688957	820884	432	0	stim00_sf1_pattern1_cont1_shape1.png	2	96	0	386.693813144828	386.793815285517	0.100002140688957	stim00_sf1_pattern1_cont1_shape1.png	1	1	1	1	1	3	0	0	0	0	0	0	0	0	0	0	0	0	1	2
401.322265625	0.0999927568464045	821908	433	12	stim12_sf2_pattern2_cont1_shape1.png	2	97	0	387.193801561647	387.293794318493	0.0999927568464045	stim12_sf2_pattern2_cont1_shape1.png	2	2	1	1	1	1	0	0	0	0	0	0	0	0	0	0	0	0	1	2
401.822265625	0.0999898243953794	822932	434	10	stim10_sf2_pattern1_cont2_shape1.png	2	98	0	387.693794377143	387.793784201538	0.0999898243953794	stim10_sf2_pattern1_cont2_shape1.png	2	1	2	1	1	3	0	0	0	0	0	0	0	0	0	0	0	0	1	2
402.322265625	0.0999936365824396	823956	435	7	stim07_sf1_pattern2_cont2_shape2.png	2	99	0	388.193780741247	388.293774377829	0.0999936365824396	stim07_sf1_pattern2_cont2_shape2.png	1	2	2	2	1	2	0	0	0	0	0	0	0	0	0	0	0	0	1	2
402.822265625	0.0999959825439873	824980	436	13	stim13_sf2_pattern2_cont1_shape2.png	2	100	0	388.693767691841	388.793763674385	0.0999959825439873	stim13_sf2_pattern2_cont1_shape2.png	2	2	1	2	1	2	0	0	0	0	0	0	0	0	0	0	0	0	1	2
403.322265625	0.0999945163166558	826004	437	8	stim08_sf2_pattern1_cont1_shape1.png	2	101	0	389.193758454621	389.293752970938	0.0999945163166558	stim08_sf2_pattern1_cont1_shape1.png	2	1	1	1	1	3	0	0	0	0	0	0	0	0	0	0	0	0	1	2
403.822265625	0.0999959825421683	827028	438	7	stim07_sf1_pattern2_cont2_shape2.png	2	102	0	389.693746284951	389.793742267493	0.0999959825421683	stim07_sf1_pattern2_cont2_shape2.png	1	2	2	2	1	2	0	0	0	0	0	0	0	0	0	0	0	0	1	2
404.322265625	0.0999660715442587	828052	439	2	stim02_sf1_pattern1_cont2_shape1.png	2	103	0	390.193738807202	390.293704878746	0.0999660715442587	stim02_sf1_pattern1_cont2_shape1.png	1	1	2	1	1	3	0	0	0	0	0	0	0	0	0	0	0	0	1	2
404.822265625	0.0999989149931935	829076	440	14	stim14_sf2_pattern2_cont2_shape1.png	2	104	0	390.693723705081	390.793722620074	0.0999989149931935	stim14_sf2_pattern2_cont2_shape1.png	2	2	2	1	1	1	0	0	0	0	0	0	0	0	0	0	0	0	1	2
405.322265625	0.0999956892974296	830100	441	6	stim06_sf1_pattern2_cont2_shape1.png	2	105	0	391.193716520576	391.293712209874	0.0999956892974296	stim06_sf1_pattern2_cont2_shape1.png	1	2	2	1	1	1	0	0	0	0	0	0	0	0	0	0	0	0	1	2
405.822265625	0.0999953960526909	831124	442	0	stim00_sf1_pattern1_cont1_shape1.png	2	106	1	391.693704057661	391.793699453714	0.0999953960526909	stim00_sf1_pattern1_cont1_shape1.png	1	1	1	1	1	3	0	0	0	0	0	0	0	0	0	0	0	0	1	2
406.322265625	0.099983079759113	832148	443	0	stim00_sf1_pattern1_cont1_shape1.png	2	107	1	392.193707136734	392.293690216493	0.099983079759113	stim00_sf1_pattern1_cont1_shape1.png	1	1	1	1	1	3	0	0	0	0	0	0	0	0	0	0	0	0	1	2
406.822265625	0.100002433933696	833172	444	8	stim08_sf2_pattern1_cont1_shape1.png	2	108	2	392.693684410242	392.793686844176	0.100002433933696	stim08_sf2_pattern1_cont1_shape1.png	2	1	1	1	1	3	0	0	0	0	0	0	0	0	0	0	0	0	1	2
407.322265625	0.0999939298271784	834196	445	2	stim02_sf1_pattern1_cont2_shape1.png	2	109	2	393.193675466266	393.293669396093	0.0999939298271784	stim02_sf1_pattern1_cont2_shape1.png	1	1	2	1	1	3	0	0	0	0	0	0	0	0	0	0	0	0	1	2
407.822265625	0.0999974487676809	835220	446	10	stim10_sf2_pattern1_cont2_shape1.png	2	110	0	393.693662123616	393.793659572384	0.0999974487676809	stim10_sf2_pattern1_cont2_shape1.png	2	1	2	1	1	3	0	0	0	0	0	0	0	0	0	0	0	0	1	2
408.322265625	0.0999933433358819	836244	447	5	stim05_sf1_pattern2_cont1_shape2.png	2	111	0	394.193653179642	394.293646522978	0.0999933433358819	stim05_sf1_pattern2_cont1_shape2.png	1	2	1	2	1	2	0	0	0	0	0	0	0	0	0	0	0	0	1	2
408.82177734375	0.0999936365806207	837267	448	4	stim04_sf1_pattern2_cont1_shape1.png	2	112	0	394.693645995138	394.793639631718	0.0999936365806207	stim04_sf1_pattern2_cont1_shape1.png	1	2	1	1	1	1	0	0	0	0	0	0	0	0	0	0	0	0	1	2
409.32177734375	0.100028825991103	838291	449	9	stim09_sf2_pattern1_cont1_shape2.png	2	113	0	395.19360919288	395.293638018871	0.100028825991103	stim09_sf2_pattern1_cont1_shape2.png	2	1	1	2	1	4	0	0	0	0	0	0	0	0	0	0	0	0	1	2
409.82177734375	0.0989271042617474	839315	450	1	stim01_sf1_pattern1_cont1_shape2.png	2	114	0	395.694690534077	395.793617638339	0.0989271042617474	stim01_sf1_pattern1_cont1_shape2.png	1	1	1	2	1	4	0	0	0	0	0	0	0	0	0	0	0	0	1	2
