onset	duration	onsetsample	eventnumber	stimnumber	stimname	blocknumber	trialnumber	istarget	time_stimon	time_stimoff	stimdur	stimfilename	spatial_freq	pattern	contrast	shape	is_fast_stream	category	ppt_1_response	ppt_1_keypressed	ppt_1_rt	ppt_1_correct	ppt_2_response	ppt_2_keypressed	ppt_2_rt	ppt_2_correct	button1	button2	button3	button4	task_part_number	subjectnr
67.16845703125	0.100005659663111	137561	0	1	stim01_sf1_pattern1_cont1_shape2.png	0	0	0	279.653753251007	279.753758910671	0.100005659663111	stim01_sf1_pattern1_cont1_shape2.png	1	1	1	2	1	1	0	0	0	0	0	0	0	0	0	0	0	0	1	5
67.6767578125	0.0999725227757153	138602	1	5	stim05_sf1_pattern2_cont1_shape2.png	0	1	0	280.1620428979	280.262015420676	0.0999725227757153	stim05_sf1_pattern2_cont1_shape2.png	1	2	1	2	1	1	0	0	0	0	0	0	0	0	0	0	0	0	1	5
68.1767578125	0.106539491398507	139626	2	15	stim15_sf2_pattern2_cont2_shape2.png	0	2	0	280.680503223222	280.787042714621	0.106539491398507	stim15_sf2_pattern2_cont2_shape2.png	2	2	2	2	1	4	0	0	0	0	0	0	0	0	0	0	0	0	1	5
68.70166015625	0.0999901175832747	140701	3	14	stim14_sf2_pattern2_cont2_shape1.png	0	3	0	281.187001718719	281.286991836303	0.0999901175832747	stim14_sf2_pattern2_cont2_shape1.png	2	2	2	1	1	4	0	0	0	0	0	0	0	0	0	0	0	0	1	5
69.20166015625	0.0999863053748413	141725	4	6	stim06_sf1_pattern2_cont2_shape1.png	0	4	0	281.687014474955	281.78700078033	0.0999863053748413	stim06_sf1_pattern2_cont2_shape1.png	1	2	2	1	1	2	0	0	0	0	0	0	0	0	0	0	0	0	1	5
69.70166015625	0.0999857188812712	142749	5	3	stim03_sf1_pattern1_cont2_shape2.png	0	5	0	282.186982950925	282.286968669806	0.0999857188812712	stim03_sf1_pattern1_cont2_shape2.png	1	1	2	2	1	2	0	0	0	0	0	0	0	0	0	0	0	0	1	5
70.20166015625	0.100001847454678	143773	6	11	stim11_sf2_pattern1_cont2_shape2.png	0	6	0	282.686988082744	282.786989930199	0.100001847454678	stim11_sf2_pattern1_cont2_shape2.png	2	1	2	2	1	4	0	0	0	0	0	0	0	0	0	0	0	0	1	5
70.70166015625	0.0998109437946368	144797	7	0	stim00_sf1_pattern1_cont1_shape1.png	0	7	0	283.187151274582	283.286962218377	0.0998109437946368	stim00_sf1_pattern1_cont1_shape1.png	1	1	1	1	1	1	0	0	0	0	0	0	0	0	0	0	0	0	1	5
71.20166015625	0.100007125897264	145821	8	8	stim08_sf2_pattern1_cont1_shape1.png	0	8	0	283.686998053135	283.787005179032	0.100007125897264	stim08_sf2_pattern1_cont1_shape1.png	2	1	1	1	1	3	0	0	0	0	0	0	0	0	0	0	0	0	1	5
71.70166015625	0.0999816134262801	146845	9	9	stim09_sf2_pattern1_cont1_shape2.png	0	9	0	284.186986176639	284.286967790066	0.0999816134262801	stim09_sf2_pattern1_cont1_shape2.png	2	1	1	2	1	3	0	0	0	0	0	0	0	0	0	0	0	0	1	5
72.20166015625	0.100004486675516	147869	10	10	stim10_sf2_pattern1_cont2_shape1.png	0	10	0	284.686998346382	284.787002833057	0.100004486675516	stim10_sf2_pattern1_cont2_shape1.png	2	1	2	1	1	4	0	0	0	0	0	0	0	0	0	0	0	0	1	5
72.70166015625	0.0999352804333284	148893	11	13	stim13_sf2_pattern2_cont1_shape2.png	0	11	0	285.186983244172	285.286918524605	0.0999352804333284	stim13_sf2_pattern2_cont1_shape2.png	2	2	1	2	1	3	0	0	0	0	0	0	0	0	0	0	0	0	1	5
73.20166015625	0.0999986217398146	149917	12	12	stim12_sf2_pattern2_cont1_shape1.png	0	12	0	285.68698749625	285.78698611799	0.0999986217398146	stim12_sf2_pattern2_cont1_shape1.png	2	2	1	1	1	3	0	0	0	0	0	0	0	0	0	0	0	0	1	5
73.70166015625	0.0999024367929451	150941	13	7	stim07_sf1_pattern2_cont2_shape2.png	0	13	0	286.186975033262	286.286877470055	0.0999024367929451	stim07_sf1_pattern2_cont2_shape2.png	1	2	2	2	1	2	0	0	0	0	0	0	0	0	0	0	0	0	1	5
74.201171875	0.0999956892724185	151964	14	2	stim02_sf1_pattern1_cont2_shape1.png	0	14	0	286.686966089234	286.786961778507	0.0999956892724185	stim02_sf1_pattern1_cont2_shape1.png	1	1	2	1	1	2	0	0	0	0	0	0	0	0	0	0	0	0	1	5
74.701171875	0.0999115274430551	152988	15	4	stim04_sf1_pattern2_cont1_shape1.png	0	15	0	287.186970927807	287.28688245525	0.0999115274430551	stim04_sf1_pattern2_cont1_shape1.png	1	2	1	1	1	1	0	0	0	0	0	0	0	0	0	0	0	0	1	5
75.201171875	0.100010938105243	154012	16	5	stim05_sf1_pattern2_cont1_shape2.png	0	16	0	287.686920049488	287.786930987594	0.100010938105243	stim05_sf1_pattern2_cont1_shape2.png	1	2	1	2	1	1	0	0	0	0	0	0	0	0	0	0	0	0	1	5
75.701171875	0.100059910319487	155036	17	3	stim03_sf1_pattern1_cont2_shape2.png	0	17	0	288.186862426494	288.286922336813	0.100059910319487	stim03_sf1_pattern1_cont2_shape2.png	1	1	2	2	1	2	0	0	0	0	0	0	0	0	0	0	0	0	1	5
76.201171875	0.10000155420812	156060	18	2	stim02_sf1_pattern1_cont2_shape1.png	0	18	0	288.686926500918	288.786928055126	0.10000155420812	stim02_sf1_pattern1_cont2_shape1.png	1	1	2	1	1	2	0	0	0	0	0	0	0	0	0	0	0	0	1	5
76.701171875	0.100035570835644	157084	19	12	stim12_sf2_pattern2_cont1_shape1.png	0	19	0	289.186908172993	289.286943743829	0.100035570835644	stim12_sf2_pattern2_cont1_shape1.png	2	2	1	1	1	3	0	0	0	0	0	0	0	0	0	0	0	0	1	5
77.201171875	0.0999748687499959	158108	20	7	stim07_sf1_pattern2_cont2_shape2.png	0	20	0	289.686897176239	289.786872044989	0.0999748687499959	stim07_sf1_pattern2_cont2_shape2.png	1	2	2	2	1	2	0	0	0	0	0	0	0	0	0	0	0	0	1	5
77.701171875	0.10002882615936	159132	21	9	stim09_sf2_pattern1_cont1_shape2.png	0	21	0	290.186862133247	290.286890959407	0.10002882615936	stim09_sf2_pattern1_cont1_shape2.png	2	1	1	2	1	3	0	0	0	0	0	0	0	0	0	0	0	0	1	5
78.201171875	0.0999511157601773	160156	22	13	stim13_sf2_pattern2_cont1_shape2.png	0	22	0	290.686889845069	290.786840960829	0.0999511157601773	stim13_sf2_pattern2_cont1_shape2.png	2	2	1	2	1	3	0	0	0	0	0	0	0	0	0	0	0	0	1	5
78.7431640625	0.0999426116031827	161266	23	15	stim15_sf2_pattern2_cont2_shape2.png	0	23	0	291.228507282931	291.328449894534	0.0999426116031827	stim15_sf2_pattern2_cont2_shape2.png	2	2	2	2	1	4	0	0	0	0	0	0	0	0	0	0	0	0	1	5
79.2431640625	0.099985132387701	162290	24	8	stim08_sf2_pattern1_cont1_shape1.png	0	24	0	291.728507722801	291.828492855189	0.099985132387701	stim08_sf2_pattern1_cont1_shape1.png	2	1	1	1	1	3	0	0	0	0	0	0	0	0	0	0	0	0	1	5
79.74267578125	0.100004779922529	163313	25	0	stim00_sf1_pattern1_cont1_shape1.png	0	25	0	292.228485582668	292.328490362591	0.100004779922529	stim00_sf1_pattern1_cont1_shape1.png	1	1	1	1	1	1	0	0	0	0	0	0	0	0	0	0	0	0	1	5
80.24267578125	0.0999865986218538	164337	26	4	stim04_sf1_pattern2_cont1_shape1.png	0	26	0	292.728507136307	292.828493734929	0.0999865986218538	stim04_sf1_pattern2_cont1_shape1.png	1	2	1	1	1	1	0	0	0	0	0	0	0	0	0	0	0	0	1	5
80.74267578125	0.100004779923438	165361	27	1	stim01_sf1_pattern1_cont1_shape2.png	0	27	0	293.228499365267	293.32850414519	0.100004779923438	stim01_sf1_pattern1_cont1_shape2.png	1	1	1	2	1	1	0	0	0	0	0	0	0	0	0	0	0	0	1	5
81.24267578125	0.0999921703114524	166385	28	6	stim06_sf1_pattern2_cont2_shape1.png	0	28	0	293.728506256567	293.828498426878	0.0999921703114524	stim06_sf1_pattern2_cont2_shape1.png	1	2	2	1	1	2	0	0	0	0	0	0	0	0	0	0	0	0	1	5
81.74267578125	0.0999824931659532	167409	29	10	stim10_sf2_pattern1_cont2_shape1.png	0	29	0	294.228494966566	294.328477459732	0.0999824931659532	stim10_sf2_pattern1_cont2_shape1.png	2	1	2	1	1	4	0	0	0	0	0	0	0	0	0	0	0	0	1	5
82.24267578125	0.0999915838174275	168433	30	11	stim11_sf2_pattern1_cont2_shape2.png	0	30	0	294.728509189035	294.828500772852	0.0999915838174275	stim11_sf2_pattern1_cont2_shape2.png	2	1	2	2	1	4	0	0	0	0	0	0	0	0	0	0	0	0	1	5
82.74267578125	0.100012111092838	169457	31	14	stim14_sf2_pattern2_cont2_shape1.png	0	31	0	295.228483236694	295.328495347786	0.100012111092838	stim14_sf2_pattern2_cont2_shape1.png	2	2	2	1	1	4	0	0	0	0	0	0	0	0	0	0	0	0	1	5
83.24267578125	0.100037330316809	170481	32	5	stim05_sf1_pattern2_cont1_shape2.png	0	32	0	295.728448780196	295.828486110513	0.100037330316809	stim05_sf1_pattern2_cont1_shape2.png	1	2	1	2	1	1	0	0	0	0	0	0	0	0	0	0	0	0	1	5
83.74267578125	0.100007125897719	171505	33	0	stim00_sf1_pattern1_cont1_shape1.png	0	33	0	296.228465935133	296.328473061031	0.100007125897719	stim00_sf1_pattern1_cont1_shape1.png	1	1	1	1	1	1	0	0	0	0	0	0	0	0	0	0	0	0	1	5
84.24267578125	0.0999977419996867	172529	34	7	stim07_sf1_pattern2_cont2_shape2.png	0	34	0	296.728467547991	296.828465289991	0.0999977419996867	stim07_sf1_pattern2_cont2_shape2.png	1	2	2	2	1	2	0	0	0	0	0	0	0	0	0	0	0	0	1	5
84.74267578125	0.100006246156227	173553	35	9	stim09_sf2_pattern1_cont1_shape2.png	0	35	0	297.228446874092	297.328453120248	0.100006246156227	stim09_sf2_pattern1_cont1_shape2.png	2	1	1	2	1	3	0	0	0	0	0	0	0	0	0	0	0	0	1	5
85.24267578125	0.100001260962017	174577	36	10	stim10_sf2_pattern1_cont2_shape1.png	0	36	0	297.728429425908	297.82843068687	0.100001260962017	stim10_sf2_pattern1_cont2_shape1.png	2	1	2	1	1	4	0	0	0	0	0	0	0	0	0	0	0	0	1	5
85.74267578125	0.100005073169086	175601	37	2	stim02_sf1_pattern1_cont2_shape1.png	0	37	0	298.228432211753	298.328437284922	0.100005073169086	stim02_sf1_pattern1_cont2_shape1.png	1	1	2	1	1	2	0	0	0	0	0	0	0	0	0	0	0	0	1	5
86.24267578125	0.0999206180940746	176625	38	13	stim13_sf2_pattern2_cont1_shape2.png	0	38	0	298.728440569286	298.82836118738	0.0999206180940746	stim13_sf2_pattern2_cont1_shape2.png	2	2	1	2	1	3	0	0	0	0	0	0	0	0	0	0	0	0	1	5
86.74267578125	0.0999692970617616	177649	39	15	stim15_sf2_pattern2_cont2_shape2.png	0	39	0	299.228406406035	299.328375703096	0.0999692970617616	stim15_sf2_pattern2_cont2_shape2.png	2	2	2	2	1	4	0	0	0	0	0	0	0	0	0	0	0	0	1	5
87.24267578125	0.0999619658914526	178673	40	6	stim06_sf1_pattern2_cont2_shape1.png	0	40	0	299.728399514735	299.828361480626	0.0999619658914526	stim06_sf1_pattern2_cont2_shape1.png	1	2	2	1	1	2	0	0	0	0	0	0	0	0	0	0	0	0	1	5
87.74267578125	0.0999845458945856	179697	41	11	stim11_sf2_pattern1_cont2_shape2.png	0	41	0	300.228396142397	300.328380688291	0.0999845458945856	stim11_sf2_pattern1_cont2_shape2.png	2	1	2	2	1	4	0	0	0	0	0	0	0	0	0	0	0	0	1	5
88.24267578125	0.10002882615936	180721	42	3	stim03_sf1_pattern1_cont2_shape2.png	0	42	0	300.728352302002	300.828381128161	0.10002882615936	stim03_sf1_pattern1_cont2_shape2.png	1	1	2	2	1	2	0	0	0	0	0	0	0	0	0	0	0	0	1	5
88.74267578125	0.100004486675971	181745	43	4	stim04_sf1_pattern2_cont1_shape1.png	0	43	0	301.228359193301	301.328363679977	0.100004486675971	stim04_sf1_pattern2_cont1_shape1.png	1	2	1	1	1	1	0	0	0	0	0	0	0	0	0	0	0	0	1	5
89.24267578125	0.100041142524788	182769	44	8	stim08_sf2_pattern1_cont1_shape1.png	0	44	0	301.728327376024	301.828368518549	0.100041142524788	stim08_sf2_pattern1_cont1_shape1.png	2	1	1	1	1	3	0	0	0	0	0	0	0	0	0	0	0	0	1	5
89.74267578125	0.0999572739428913	183793	45	14	stim14_sf2_pattern2_cont2_shape1.png	0	45	0	302.228358020314	302.328315294257	0.0999572739428913	stim14_sf2_pattern2_cont2_shape1.png	2	2	2	1	1	4	0	0	0	0	0	0	0	0	0	0	0	0	1	5
90.24267578125	0.0999980352462444	184817	46	12	stim12_sf2_pattern2_cont1_shape1.png	0	46	0	302.728372242784	302.82837027803	0.0999980352462444	stim12_sf2_pattern2_cont1_shape1.png	2	2	1	1	1	3	0	0	0	0	0	0	0	0	0	0	0	0	1	5
90.74267578125	0.100053165642748	185841	47	1	stim01_sf1_pattern1_cont1_shape2.png	0	47	0	303.228306115633	303.328359281275	0.100053165642748	stim01_sf1_pattern1_cont1_shape2.png	1	1	1	2	1	1	0	0	0	0	0	0	0	0	0	0	0	0	1	5
91.24267578125	0.100039089797065	186865	48	11	stim11_sf2_pattern1_cont2_shape2.png	0	48	0	303.728294532385	303.828333622182	0.100039089797065	stim11_sf2_pattern1_cont2_shape2.png	2	1	2	2	1	4	0	0	0	0	0	0	0	0	0	0	0	0	1	5
91.74267578125	0.0999607929043123	187889	49	1	stim01_sf1_pattern1_cont1_shape2.png	0	49	0	304.22832459018	304.328285383085	0.0999607929043123	stim01_sf1_pattern1_cont1_shape2.png	1	1	1	2	1	1	0	0	0	0	0	0	0	0	0	0	0	0	1	5
92.24267578125	0.099995982519431	188913	50	6	stim06_sf1_pattern2_cont2_shape1.png	0	50	0	304.728317698881	304.8283136814	0.099995982519431	stim06_sf1_pattern2_cont2_shape1.png	1	2	2	1	1	2	0	0	0	0	0	0	0	0	0	0	0	0	1	5
92.74267578125	0.100008885377974	189937	51	4	stim04_sf1_pattern2_cont1_shape1.png	0	51	0	305.228296145242	305.32830503062	0.100008885377974	stim04_sf1_pattern2_cont1_shape1.png	1	2	1	1	1	1	0	0	0	0	0	0	0	0	0	0	0	0	1	5
93.24267578125	0.100005073169996	190961	52	15	stim15_sf2_pattern2_cont2_shape2.png	0	52	0	305.728270779394	305.828275852564	0.100005073169996	stim15_sf2_pattern2_cont2_shape2.png	2	2	2	2	1	4	0	0	0	0	0	0	0	0	0	0	0	0	1	5
93.74267578125	0.100000087973967	191985	53	2	stim02_sf1_pattern1_cont2_shape1.png	0	53	0	306.22826154212	306.328261630094	0.100000087973967	stim02_sf1_pattern1_cont2_shape1.png	1	1	2	1	1	2	0	0	0	0	0	0	0	0	0	0	0	0	1	5
94.24267578125	0.0999956892719638	193009	54	0	stim00_sf1_pattern1_cont1_shape1.png	0	54	0	306.728259929263	306.828255618535	0.0999956892719638	stim00_sf1_pattern1_cont1_shape1.png	1	1	1	1	1	1	0	0	0	0	0	0	0	0	0	0	0	0	1	5
94.74267578125	0.100002433948248	194033	55	5	stim05_sf1_pattern2_cont1_shape2.png	0	55	0	307.228238375624	307.328240809572	0.100002433948248	stim05_sf1_pattern2_cont1_shape2.png	1	2	1	2	1	1	0	0	0	0	0	0	0	0	0	0	0	0	1	5
95.24267578125	0.099976334983694	195057	56	3	stim03_sf1_pattern1_cont2_shape2.png	0	56	0	307.728248492639	307.828224827622	0.099976334983694	stim03_sf1_pattern1_cont2_shape2.png	1	1	2	2	1	2	0	0	0	0	0	0	0	0	0	0	0	0	1	5
95.74267578125	0.0999871851154239	196081	57	12	stim12_sf2_pattern2_cont1_shape1.png	0	57	0	308.228248052768	308.328235237883	0.0999871851154239	stim12_sf2_pattern2_cont1_shape1.png	2	2	1	1	1	3	0	0	0	0	0	0	0	0	0	0	0	0	1	5
96.24267578125	0.100026186938521	197105	58	7	stim07_sf1_pattern2_cont2_shape2.png	0	58	0	308.728228551856	308.828254738795	0.100026186938521	stim07_sf1_pattern2_cont2_shape2.png	1	2	2	2	1	2	0	0	0	0	0	0	0	0	0	0	0	0	1	5
96.7421875	0.100003020442273	198128	59	8	stim08_sf2_pattern1_cont1_shape1.png	0	59	0	309.228239841858	309.3282428623	0.100003020442273	stim08_sf2_pattern1_cont1_shape1.png	2	1	1	1	1	3	0	0	0	0	0	0	0	0	0	0	0	0	1	5
97.2421875	0.100005952910578	199152	60	9	stim09_sf2_pattern1_cont1_shape2.png	0	60	0	309.728247026404	309.828252979315	0.100005952910578	stim09_sf2_pattern1_cont1_shape2.png	2	1	1	2	1	3	0	0	0	0	0	0	0	0	0	0	0	0	1	5
97.7421875	0.100036743822784	200176	61	14	stim14_sf2_pattern2_cont2_shape1.png	0	61	0	310.228160371978	310.328197115801	0.100036743822784	stim14_sf2_pattern2_cont2_shape1.png	2	2	2	1	1	4	0	0	0	0	0	0	0	0	0	0	0	0	1	5
98.2421875	0.0999945162848235	201200	62	10	stim10_sf2_pattern1_cont2_shape1.png	0	62	0	310.728241747962	310.828236264247	0.0999945162848235	stim10_sf2_pattern1_cont2_shape1.png	2	1	2	1	1	4	0	0	0	0	0	0	0	0	0	0	0	0	1	5
98.7421875	0.0999402656289021	202224	63	13	stim13_sf2_pattern2_cont1_shape2.png	0	63	0	311.228235443156	311.328175708785	0.0999402656289021	stim13_sf2_pattern2_cont1_shape2.png	2	2	1	2	1	3	0	0	0	0	0	0	0	0	0	0	0	0	1	5
99.2421875	0.0999795606985572	203248	64	5	stim05_sf1_pattern2_cont1_shape2.png	0	64	0	311.728224739648	311.828204300347	0.0999795606985572	stim05_sf1_pattern2_cont1_shape2.png	1	2	1	2	1	1	0	0	0	0	0	0	0	0	0	0	0	0	1	5
99.7421875	0.100000381220525	204272	65	3	stim03_sf1_pattern1_cont2_shape2.png	0	65	0	312.228196148086	312.328196529307	0.100000381220525	stim03_sf1_pattern1_cont2_shape2.png	1	1	2	2	1	2	0	0	0	0	0	0	0	0	0	0	0	0	1	5
100.2421875	0.100030585639615	205296	66	2	stim02_sf1_pattern1_cont2_shape1.png	0	66	0	312.728160225355	312.828190810994	0.100030585639615	stim02_sf1_pattern1_cont2_shape1.png	1	1	2	1	1	2	0	0	0	0	0	0	0	0	0	0	0	0	1	5
100.7421875	0.0999833729065358	206320	67	8	stim08_sf2_pattern1_cont1_shape1.png	0	67	0	313.228176500551	313.328159873458	0.0999833729065358	stim08_sf2_pattern1_cont1_shape1.png	2	1	1	1	1	3	0	0	0	0	0	0	0	0	0	0	0	0	1	5
101.2421875	0.100005952910578	207344	68	9	stim09_sf2_pattern1_cont1_shape2.png	0	68	0	313.728161105094	313.828167058005	0.100005952910578	stim09_sf2_pattern1_cont1_shape2.png	2	1	1	2	1	3	0	0	0	0	0	0	0	0	0	0	0	0	1	5
101.7421875	0.0999936365442409	208368	69	15	stim15_sf2_pattern2_cont2_shape2.png	0	69	0	314.228133100026	314.328126736571	0.0999936365442409	stim15_sf2_pattern2_cont2_shape2.png	2	2	2	2	1	4	0	0	0	0	0	0	0	0	0	0	0	0	1	5
102.2421875	0.0999657780994312	209392	70	1	stim01_sf1_pattern1_cont1_shape2.png	0	70	0	314.728164917303	314.828130695403	0.0999657780994312	stim01_sf1_pattern1_cont1_shape2.png	1	1	1	2	1	1	0	0	0	0	0	0	0	0	0	0	0	0	1	5
102.7421875	0.100001260961108	210416	71	13	stim13_sf2_pattern2_cont1_shape2.png	0	71	0	315.228158905744	315.328160166705	0.100001260961108	stim13_sf2_pattern2_cont1_shape2.png	2	2	1	2	1	3	0	0	0	0	0	0	0	0	0	0	0	0	1	5
103.2421875	0.0999912905699603	211440	72	7	stim07_sf1_pattern2_cont2_shape2.png	0	72	0	315.728158172627	315.828149463197	0.0999912905699603	stim07_sf1_pattern2_cont2_shape2.png	1	2	2	2	1	2	0	0	0	0	0	0	0	0	0	0	0	0	1	5
103.7421875	0.0999722295291576	212464	73	4	stim04_sf1_pattern2_cont1_shape1.png	0	73	0	316.228132220286	316.328104449815	0.0999722295291576	stim04_sf1_pattern2_cont1_shape1.png	1	2	1	1	1	1	0	0	0	0	0	0	0	0	0	0	0	0	1	5
104.2421875	0.0999695903083193	213488	74	10	stim10_sf2_pattern1_cont2_shape1.png	0	74	0	316.728120930284	316.828090520592	0.0999695903083193	stim10_sf2_pattern1_cont2_shape1.png	2	1	2	1	1	4	0	0	0	0	0	0	0	0	0	0	0	0	1	5
104.7421875	0.10004202226537	214512	75	0	stim00_sf1_pattern1_cont1_shape1.png	0	75	0	317.228090579242	317.328132601507	0.10004202226537	stim00_sf1_pattern1_cont1_shape1.png	1	1	1	1	1	1	0	0	0	0	0	0	0	0	0	0	0	0	1	5
105.2421875	0.0999921703105429	215536	76	11	stim11_sf2_pattern1_cont2_shape2.png	0	76	0	317.7281103734	317.82810254371	0.0999921703105429	stim11_sf2_pattern1_cont2_shape2.png	2	1	2	2	1	4	0	0	0	0	0	0	0	0	0	0	0	0	1	5
105.7421875	0.0999965690125464	216560	77	12	stim12_sf2_pattern2_cont1_shape1.png	0	77	0	318.228108760543	318.328105329555	0.0999965690125464	stim12_sf2_pattern2_cont1_shape1.png	2	2	1	1	1	3	0	0	0	0	0	0	0	0	0	0	0	0	1	5
106.2421875	0.100010058365115	217584	78	6	stim06_sf1_pattern2_cont2_shape1.png	0	78	0	318.728109493659	318.828119552024	0.100010058365115	stim06_sf1_pattern2_cont2_shape1.png	1	2	2	1	1	2	0	0	0	0	0	0	0	0	0	0	0	0	1	5
106.7421875	0.100023547717683	218608	79	14	stim14_sf2_pattern2_cont2_shape1.png	0	79	0	319.228065653264	319.328089200982	0.100023547717683	stim14_sf2_pattern2_cont2_shape1.png	2	2	2	1	1	4	0	0	0	0	0	0	0	0	0	0	0	0	1	5
107.2421875	0.0999795606985572	219632	80	11	stim11_sf2_pattern1_cont2_shape2.png	0	80	0	319.728096297554	319.828075858253	0.0999795606985572	stim11_sf2_pattern1_cont2_shape2.png	2	1	2	2	1	4	0	0	0	0	0	0	0	0	0	0	0	0	1	5
107.7421875	0.0999895310897045	220656	81	7	stim07_sf1_pattern2_cont2_shape2.png	0	81	0	320.228049817938	320.328039349027	0.0999895310897045	stim07_sf1_pattern2_cont2_shape2.png	1	2	2	2	1	2	0	0	0	0	0	0	0	0	0	0	0	0	1	5
108.2421875	0.0999948095322907	221680	82	14	stim14_sf2_pattern2_cont2_shape1.png	0	82	0	320.728032369754	320.828027179286	0.0999948095322907	stim14_sf2_pattern2_cont2_shape1.png	2	2	2	1	1	4	0	0	0	0	0	0	0	0	0	0	0	0	1	5
108.7421875	0.0999915838174275	222704	83	9	stim09_sf2_pattern1_cont1_shape2.png	0	83	0	321.228024305467	321.328015889284	0.0999915838174275	stim09_sf2_pattern1_cont1_shape2.png	2	1	1	2	1	3	0	0	0	0	0	0	0	0	0	0	0	0	1	5
109.2421875	0.0999874783619816	223728	84	2	stim02_sf1_pattern1_cont2_shape1.png	0	84	0	321.728025038584	321.828012516946	0.0999874783619816	stim02_sf1_pattern1_cont2_shape1.png	1	1	2	1	1	2	0	0	0	0	0	0	0	0	0	0	0	0	1	5
109.7421875	0.099997448753129	224752	85	12	stim12_sf2_pattern2_cont1_shape1.png	0	85	0	322.228007883647	322.3280053324	0.099997448753129	stim12_sf2_pattern2_cont1_shape1.png	2	2	1	1	1	3	0	0	0	0	0	0	0	0	0	0	0	0	1	5
110.2421875	0.099995982519431	225776	86	0	stim00_sf1_pattern1_cont1_shape1.png	0	86	0	322.728000405853	322.827996388373	0.099995982519431	stim00_sf1_pattern1_cont1_shape1.png	1	1	1	1	1	1	0	0	0	0	0	0	0	0	0	0	0	0	1	5
110.7421875	0.0999836661530935	226800	87	12	stim12_sf2_pattern2_cont1_shape1.png	0	87	1	323.228003191698	323.327986857852	0.0999836661530935	stim12_sf2_pattern2_cont1_shape1.png	2	2	1	1	1	3	0	0	0	0	0	0	0	0	0	0	0	0	1	5
111.2421875	0.100002727195715	227824	88	12	stim12_sf2_pattern2_cont1_shape1.png	0	88	1	323.72800715053	323.828009877725	0.100002727195715	stim12_sf2_pattern2_cont1_shape1.png	2	2	1	1	1	3	0	0	0	0	0	0	0	0	0	0	0	0	1	5
111.7421875	0.100004193429413	228848	89	8	stim08_sf2_pattern1_cont1_shape1.png	0	89	2	324.227997033515	324.328001226945	0.100004193429413	stim08_sf2_pattern1_cont1_shape1.png	2	1	1	1	1	3	0	0	0	0	0	0	0	0	0	0	0	0	1	5
112.2421875	0.100001260961108	229872	90	15	stim15_sf2_pattern2_cont2_shape2.png	0	90	2	324.72799893962	324.828000200581	0.100001260961108	stim15_sf2_pattern2_cont2_shape2.png	2	2	2	2	1	4	0	0	0	0	0	0	0	0	0	0	0	0	1	5
112.7421875	0.100006539402784	230896	91	8	stim08_sf2_pattern1_cont1_shape1.png	0	91	0	325.228003191698	325.328009731101	0.100006539402784	stim08_sf2_pattern1_cont1_shape1.png	2	1	1	1	1	3	0	0	0	0	0	0	0	0	0	0	0	0	1	5
113.2421875	0.0999971555065713	231920	92	1	stim01_sf1_pattern1_cont1_shape2.png	0	92	0	325.728004804555	325.828001960062	0.0999971555065713	stim01_sf1_pattern1_cont1_shape2.png	1	1	1	2	1	1	0	0	0	0	0	0	0	0	0	0	0	0	1	5
113.74169921875	0.0999821999193955	232943	93	3	stim03_sf1_pattern1_cont2_shape2.png	0	93	0	326.227976799487	326.327958999407	0.0999821999193955	stim03_sf1_pattern1_cont2_shape2.png	1	1	2	2	1	2	0	0	0	0	0	0	0	0	0	0	0	0	1	5
114.24169921875	0.0999930500511255	233967	94	13	stim13_sf2_pattern2_cont1_shape2.png	0	94	0	326.727984863774	326.827977913825	0.0999930500511255	stim13_sf2_pattern2_cont1_shape2.png	2	2	1	2	1	3	0	0	0	0	0	0	0	0	0	0	0	0	1	5
114.74169921875	0.0999821999193955	234991	95	6	stim06_sf1_pattern2_cont2_shape1.png	0	95	0	327.227942782859	327.327924982779	0.0999821999193955	stim06_sf1_pattern2_cont2_shape1.png	1	2	2	1	1	2	0	0	0	0	0	0	0	0	0	0	0	0	1	5
115.24169921875	0.0999965690125464	236015	96	15	stim15_sf2_pattern2_cont2_shape2.png	0	96	0	327.727963456758	327.827960025771	0.0999965690125464	stim15_sf2_pattern2_cont2_shape2.png	2	2	2	2	1	4	0	0	0	0	0	0	0	0	0	0	0	0	1	5
115.74169921875	0.0999581536825644	237039	97	5	stim05_sf1_pattern2_cont1_shape2.png	0	97	0	328.227957151953	328.327915305635	0.0999581536825644	stim05_sf1_pattern2_cont1_shape2.png	1	2	1	2	1	1	0	0	0	0	0	0	0	0	0	0	0	0	1	5
116.24169921875	0.0999986217402693	238063	98	4	stim04_sf1_pattern2_cont1_shape1.png	0	98	0	328.727948794418	328.827947416159	0.0999986217402693	stim04_sf1_pattern2_cont1_shape1.png	1	2	1	1	1	1	0	0	0	0	0	0	0	0	0	0	0	0	1	5
116.74169921875	0.0999757484905786	239087	99	10	stim10_sf2_pattern1_cont2_shape1.png	0	99	0	329.227958618186	329.327934366677	0.0999757484905786	stim10_sf2_pattern1_cont2_shape1.png	2	1	2	1	1	4	0	0	0	0	0	0	0	0	0	0	0	0	1	5
117.24169921875	0.0999933432976832	240111	100	3	stim03_sf1_pattern1_cont2_shape2.png	0	100	0	329.727935598313	329.827928941611	0.0999933432976832	stim03_sf1_pattern1_cont2_shape2.png	1	1	2	2	1	2	0	0	0	0	0	0	0	0	0	0	0	0	1	5
117.74169921875	0.100011524598813	241135	101	8	stim08_sf2_pattern1_cont1_shape1.png	0	101	0	330.227912871687	330.327924396286	0.100011524598813	stim08_sf2_pattern1_cont1_shape1.png	2	1	1	1	1	3	0	0	0	0	0	0	0	0	0	0	0	0	1	5
118.24169921875	0.100000674467992	242159	102	12	stim12_sf2_pattern2_cont1_shape1.png	0	102	0	330.727914191297	330.827914865765	0.100000674467992	stim12_sf2_pattern2_cont1_shape1.png	2	2	1	1	1	3	0	0	0	0	0	0	0	0	0	0	0	0	1	5
118.74169921875	0.100015336806791	243183	103	9	stim09_sf2_pattern1_cont1_shape2.png	0	103	0	331.227898795841	331.327914132648	0.100015336806791	stim09_sf2_pattern1_cont1_shape2.png	2	1	1	2	1	3	0	0	0	0	0	0	0	0	0	0	0	0	1	5
119.24169921875	0.0999933432976832	244207	104	2	stim02_sf1_pattern1_cont2_shape1.png	0	104	0	331.727905100647	331.827898443944	0.0999933432976832	stim02_sf1_pattern1_cont2_shape1.png	1	1	2	1	1	2	0	0	0	0	0	0	0	0	0	0	0	0	1	5
119.74169921875	0.100006832650251	245231	105	0	stim00_sf1_pattern1_cont1_shape1.png	0	105	0	332.227884719995	332.327891552645	0.100006832650251	stim00_sf1_pattern1_cont1_shape1.png	1	1	1	1	1	1	0	0	0	0	0	0	0	0	0	0	0	0	1	5
120.24169921875	0.100016509793932	246255	106	14	stim14_sf2_pattern2_cont2_shape1.png	0	106	0	332.727867858305	332.827884368099	0.100016509793932	stim14_sf2_pattern2_cont2_shape1.png	2	2	2	1	1	4	0	0	0	0	0	0	0	0	0	0	0	0	1	5
120.74169921875	0.10002032200191	247279	107	6	stim06_sf1_pattern2_cont2_shape1.png	0	107	0	333.227868004928	333.32788832693	0.10002032200191	stim06_sf1_pattern2_cont2_shape1.png	1	2	2	1	1	2	0	0	0	0	0	0	0	0	0	0	0	0	1	5
121.24169921875	0.100008592131417	248303	108	1	stim01_sf1_pattern1_cont1_shape2.png	0	108	0	333.727850263497	333.827858855628	0.100008592131417	stim01_sf1_pattern1_cont1_shape2.png	1	1	1	2	1	1	0	0	0	0	0	0	0	0	0	0	0	0	1	5
121.74169921875	0.100001554208575	249327	109	15	stim15_sf2_pattern2_cont2_shape2.png	0	109	0	334.227862726485	334.327864280694	0.100001554208575	stim15_sf2_pattern2_cont2_shape2.png	2	2	2	2	1	4	0	0	0	0	0	0	0	0	0	0	0	0	1	5
122.24169921875	0.100001260961108	250351	110	10	stim10_sf2_pattern1_cont2_shape1.png	0	110	0	334.727846158042	334.827847419003	0.100001260961108	stim10_sf2_pattern1_cont2_shape1.png	2	1	2	1	1	4	0	0	0	0	0	0	0	0	0	0	0	0	1	5
122.74169921875	0.100040556030763	251375	111	11	stim11_sf2_pattern1_cont2_shape2.png	0	111	0	335.227806423102	335.327846979133	0.100040556030763	stim11_sf2_pattern1_cont2_shape2.png	2	1	2	2	1	4	0	0	0	0	0	0	0	0	0	0	0	0	1	5
123.24169921875	0.100013577326536	252399	112	13	stim13_sf2_pattern2_cont1_shape2.png	0	112	0	335.727814780635	335.827828357962	0.100013577326536	stim13_sf2_pattern2_cont1_shape2.png	2	2	1	2	1	3	0	0	0	0	0	0	0	0	0	0	0	0	1	5
123.74169921875	0.0999810269322552	253423	113	5	stim05_sf1_pattern2_cont1_shape2.png	0	113	0	336.227798212192	336.327779239124	0.0999810269322552	stim05_sf1_pattern2_cont1_shape2.png	1	2	1	2	1	1	0	0	0	0	0	0	0	0	0	0	0	0	1	5
124.24169921875	0.099974282255971	254447	114	7	stim07_sf1_pattern2_cont2_shape2.png	0	114	0	336.72780158453	336.827775866786	0.099974282255971	stim07_sf1_pattern2_cont2_shape2.png	1	2	2	2	1	2	0	0	0	0	0	0	0	0	0	0	0	0	1	5
124.74169921875	0.0999951027779389	255471	115	3	stim03_sf1_pattern1_cont2_shape2.png	0	115	1	337.227784136346	337.327779239124	0.0999951027779389	stim03_sf1_pattern1_cont2_shape2.png	1	1	2	2	1	2	0	0	0	0	0	0	0	0	0	0	0	0	1	5
125.24169921875	0.0999731092688307	256495	116	3	stim03_sf1_pattern1_cont2_shape2.png	0	116	1	337.72778516271	337.827758271979	0.0999731092688307	stim03_sf1_pattern1_cont2_shape2.png	1	1	2	2	1	2	0	0	0	0	0	0	0	0	0	0	0	0	1	5
125.74169921875	0.100003606935388	257519	117	8	stim08_sf2_pattern1_cont1_shape1.png	0	117	2	338.227767128032	338.327770734968	0.100003606935388	stim08_sf2_pattern1_cont1_shape1.png	2	1	1	1	1	3	0	0	0	0	0	0	0	0	0	0	0	0	1	5
126.24169921875	0.0999942230382658	258543	118	6	stim06_sf1_pattern2_cont2_shape1.png	0	118	2	338.727776365306	338.827770588344	0.0999942230382658	stim06_sf1_pattern2_cont2_shape1.png	1	2	2	1	1	2	0	0	0	0	0	0	0	0	0	0	0	0	1	5
126.74169921875	0.0999892378431468	259567	119	4	stim04_sf1_pattern2_cont1_shape1.png	0	119	0	339.227773286214	339.327762524058	0.0999892378431468	stim04_sf1_pattern2_cont1_shape1.png	1	2	1	1	1	1	0	0	0	0	0	0	0	0	0	0	0	0	1	5
127.24169921875	0.10000214070169	260591	120	2	stim02_sf1_pattern1_cont2_shape1.png	0	120	0	339.727757597511	339.827759738213	0.10000214070169	stim02_sf1_pattern1_cont2_shape1.png	1	1	2	1	1	2	0	0	0	0	0	0	0	0	0	0	0	0	1	5
127.74169921875	0.100017096287957	261615	121	14	stim14_sf2_pattern2_cont2_shape1.png	0	121	0	340.227755691407	340.327772787695	0.100017096287957	stim14_sf2_pattern2_cont2_shape1.png	2	2	2	1	1	4	0	0	0	0	0	0	0	0	0	0	0	0	1	5
128.24169921875	0.0999936365451504	262639	122	9	stim09_sf2_pattern1_cont1_shape2.png	0	122	0	340.727769034136	340.827762670681	0.0999936365451504	stim09_sf2_pattern1_cont1_shape2.png	2	1	1	2	1	3	0	0	0	0	0	0	0	0	0	0	0	0	1	5
128.74169921875	0.100013577326536	263663	123	6	stim06_sf1_pattern2_cont2_shape1.png	0	123	0	341.227738389847	341.327751967173	0.100013577326536	stim06_sf1_pattern2_cont2_shape1.png	1	2	2	1	1	2	0	0	0	0	0	0	0	0	0	0	0	0	1	5
129.24169921875	0.0999968622591041	264687	124	3	stim03_sf1_pattern1_cont2_shape2.png	0	124	0	341.727745281146	341.827742143405	0.0999968622591041	stim03_sf1_pattern1_cont2_shape2.png	1	1	2	2	1	2	0	0	0	0	0	0	0	0	0	0	0	0	1	5
129.74169921875	0.100004486675971	265711	125	1	stim01_sf1_pattern1_cont1_shape2.png	0	125	0	342.227732818158	342.327737304834	0.100004486675971	stim01_sf1_pattern1_cont1_shape2.png	1	1	1	2	1	1	0	0	0	0	0	0	0	0	0	0	0	0	1	5
130.24169921875	0.100000381220525	266735	126	13	stim13_sf2_pattern2_cont1_shape2.png	0	126	0	342.727726806599	342.827727187819	0.100000381220525	stim13_sf2_pattern2_cont1_shape2.png	2	2	1	2	1	3	0	0	0	0	0	0	0	0	0	0	0	0	1	5
130.7412109375	0.0999939297917081	267758	127	0	stim00_sf1_pattern1_cont1_shape1.png	0	127	0	343.22772255452	343.327716484312	0.0999939297917081	stim00_sf1_pattern1_cont1_shape1.png	1	1	1	1	1	1	0	0	0	0	0	0	0	0	0	0	0	0	1	5
131.2412109375	0.0999909973234026	268782	128	4	stim04_sf1_pattern2_cont1_shape1.png	0	128	0	343.727716542961	343.827707540284	0.0999909973234026	stim04_sf1_pattern2_cont1_shape1.png	1	2	1	1	1	1	0	0	0	0	0	0	0	0	0	0	0	0	1	5
131.7412109375	0.100015336806791	269806	129	12	stim12_sf2_pattern2_cont1_shape1.png	0	129	0	344.227685898671	344.327701235478	0.100015336806791	stim12_sf2_pattern2_cont1_shape1.png	2	2	1	1	1	3	0	0	0	0	0	0	0	0	0	0	0	0	1	5
132.2412109375	0.0999690038142944	270830	130	7	stim07_sf1_pattern2_cont2_shape2.png	0	130	0	344.727680180359	344.827649184173	0.0999690038142944	stim07_sf1_pattern2_cont2_shape2.png	1	2	2	2	1	2	0	0	0	0	0	0	0	0	0	0	0	0	1	5
132.7412109375	0.100012111091928	271854	131	5	stim05_sf1_pattern2_cont1_shape2.png	0	131	0	345.227672995813	345.327685106904	0.100012111091928	stim05_sf1_pattern2_cont1_shape2.png	1	2	1	2	1	1	0	0	0	0	0	0	0	0	0	0	0	0	1	5
133.2412109375	0.0999877716085393	272878	132	8	stim08_sf2_pattern1_cont1_shape1.png	0	132	0	345.727688391269	345.827676162877	0.0999877716085393	stim08_sf2_pattern1_cont1_shape1.png	2	1	1	1	1	3	0	0	0	0	0	0	0	0	0	0	0	0	1	5
133.7412109375	0.100006246157136	273902	133	11	stim11_sf2_pattern1_cont2_shape2.png	0	133	0	346.227660092953	346.32766633911	0.100006246157136	stim11_sf2_pattern1_cont2_shape2.png	2	1	2	2	1	4	0	0	0	0	0	0	0	0	0	0	0	0	1	5
134.2412109375	0.0999789742054418	274926	134	15	stim15_sf2_pattern2_cont2_shape2.png	0	134	0	346.727680180359	346.827659154564	0.0999789742054418	stim15_sf2_pattern2_cont2_shape2.png	2	2	2	2	1	4	0	0	0	0	0	0	0	0	0	0	0	0	1	5
134.7412109375	0.0999977419996867	275950	135	10	stim10_sf2_pattern1_cont2_shape1.png	0	135	0	347.227655694252	347.327653436252	0.0999977419996867	stim10_sf2_pattern1_cont2_shape1.png	2	1	2	1	1	4	0	0	0	0	0	0	0	0	0	0	0	0	1	5
135.2412109375	0.10002149498996	276974	136	7	stim07_sf1_pattern2_cont2_shape2.png	0	136	0	347.727627689183	347.827649184173	0.10002149498996	stim07_sf1_pattern2_cont2_shape2.png	1	2	2	2	1	2	0	0	0	0	0	0	0	0	0	0	0	0	1	5
135.7412109375	0.100007419143367	277998	137	4	stim04_sf1_pattern2_cont1_shape1.png	0	137	0	348.227624903339	348.327632322482	0.100007419143367	stim04_sf1_pattern2_cont1_shape1.png	1	2	1	1	1	1	0	0	0	0	0	0	0	0	0	0	0	0	1	5
136.2412109375	0.100019735509704	279022	138	3	stim03_sf1_pattern1_cont2_shape2.png	0	138	0	348.727610680869	348.827630416379	0.100019735509704	stim03_sf1_pattern1_cont2_shape2.png	1	1	2	2	1	2	0	0	0	0	0	0	0	0	0	0	0	0	1	5
136.7412109375	0.100027653172219	280046	139	9	stim09_sf2_pattern1_cont1_shape2.png	0	139	0	349.227590593464	349.327618246637	0.100027653172219	stim09_sf2_pattern1_cont1_shape2.png	2	1	1	2	1	3	0	0	0	0	0	0	0	0	0	0	0	0	1	5
137.2412109375	0.100038210056482	281070	140	0	stim00_sf1_pattern1_cont1_shape1.png	0	140	0	349.727578423722	349.827616633779	0.100038210056482	stim00_sf1_pattern1_cont1_shape1.png	1	1	1	1	1	1	0	0	0	0	0	0	0	0	0	0	0	0	1	5
137.7412109375	0.0999956892728733	282094	141	15	stim15_sf2_pattern2_cont2_shape2.png	0	141	0	350.227591179957	350.32758686923	0.0999956892728733	stim15_sf2_pattern2_cont2_shape2.png	2	2	2	2	1	4	0	0	0	0	0	0	0	0	0	0	0	0	1	5
138.2412109375	0.100006246157136	283118	142	2	stim02_sf1_pattern1_cont2_shape1.png	0	142	0	350.727574904761	350.827581150918	0.100006246157136	stim02_sf1_pattern1_cont2_shape1.png	1	1	2	1	1	2	0	0	0	0	0	0	0	0	0	0	0	0	1	5
138.7412109375	0.099982199920305	284142	143	1	stim01_sf1_pattern1_cont1_shape2.png	0	143	0	351.227593232685	351.327575432605	0.099982199920305	stim01_sf1_pattern1_cont1_shape2.png	1	1	1	2	1	1	0	0	0	0	0	0	0	0	0	0	0	0	1	5
139.2412109375	0.100008592131417	285166	144	6	stim06_sf1_pattern2_cont2_shape1.png	0	144	0	351.727549978783	351.827558570915	0.100008592131417	stim06_sf1_pattern2_cont2_shape1.png	1	2	2	1	1	2	0	0	0	0	0	0	0	0	0	0	0	0	1	5
139.7412109375	0.100015336806791	286190	145	5	stim05_sf1_pattern2_cont1_shape2.png	0	145	0	352.22753341034	352.327548747147	0.100015336806791	stim05_sf1_pattern2_cont1_shape2.png	1	2	1	2	1	1	0	0	0	0	0	0	0	0	0	0	0	0	1	5
140.2412109375	0.0999857188808164	287214	146	14	stim14_sf2_pattern2_cont2_shape1.png	0	146	0	352.727538835406	352.827524554287	0.0999857188808164	stim14_sf2_pattern2_cont2_shape1.png	2	2	2	1	1	4	0	0	0	0	0	0	0	0	0	0	0	0	1	5
140.7412109375	0.100020028756262	288238	147	11	stim11_sf2_pattern1_cont2_shape2.png	0	147	0	353.227516695273	353.327536724029	0.100020028756262	stim11_sf2_pattern1_cont2_shape2.png	2	1	2	2	1	4	0	0	0	0	0	0	0	0	0	0	0	0	1	5
141.2412109375	0.0999860121282836	289262	148	12	stim12_sf2_pattern2_cont1_shape1.png	0	148	0	353.727536196184	353.827522208313	0.0999860121282836	stim12_sf2_pattern2_cont1_shape1.png	2	2	1	1	1	3	0	0	0	0	0	0	0	0	0	0	0	0	1	5
141.7412109375	0.0999446643299962	290286	149	13	stim13_sf2_pattern2_cont1_shape2.png	0	149	0	354.227576517619	354.327521181949	0.0999446643299962	stim13_sf2_pattern2_cont1_shape2.png	2	2	1	2	1	3	0	0	0	0	0	0	0	0	0	0	0	0	1	5
142.2412109375	0.0999933432976832	291310	150	10	stim10_sf2_pattern1_cont2_shape1.png	0	150	0	354.727531504236	354.827524847533	0.0999933432976832	stim10_sf2_pattern1_cont2_shape1.png	2	1	2	1	1	4	0	0	0	0	0	0	0	0	0	0	0	0	1	5
142.7412109375	0.100028239666244	292334	151	8	stim08_sf2_pattern1_cont1_shape1.png	0	151	0	355.227507018129	355.327535257795	0.100028239666244	stim08_sf2_pattern1_cont1_shape1.png	2	1	1	1	1	3	0	0	0	0	0	0	0	0	0	0	0	0	1	5
143.2412109375	0.0999434913428559	293358	152	11	stim11_sf2_pattern1_cont2_shape2.png	0	152	0	355.72759513879	355.827538630132	0.0999434913428559	stim11_sf2_pattern1_cont2_shape2.png	2	1	2	2	1	4	0	0	0	0	0	0	0	0	0	0	0	0	1	5
143.7412109375	0.0999986217402693	294382	153	1	stim01_sf1_pattern1_cont1_shape2.png	0	153	0	356.227513762805	356.327512384546	0.0999986217402693	stim01_sf1_pattern1_cont1_shape2.png	1	1	1	2	1	1	0	0	0	0	0	0	0	0	0	0	0	0	1	5
144.2412109375	0.0999786809579746	295406	154	9	stim09_sf2_pattern1_cont1_shape2.png	0	154	0	356.727507164752	356.82748584571	0.0999786809579746	stim09_sf2_pattern1_cont1_shape2.png	2	1	1	2	1	3	0	0	0	0	0	0	0	0	0	0	0	0	1	5
144.7412109375	0.100004486675971	296430	155	14	stim14_sf2_pattern2_cont2_shape1.png	0	155	0	357.227487663841	357.327492150517	0.100004486675971	stim14_sf2_pattern2_cont2_shape1.png	2	2	2	1	1	4	0	0	0	0	0	0	0	0	0	0	0	0	1	5
145.2412109375	0.0999848391411433	297454	156	6	stim06_sf1_pattern2_cont2_shape1.png	0	156	0	357.727504232284	357.827489071425	0.0999848391411433	stim06_sf1_pattern2_cont2_shape1.png	1	2	2	1	1	2	0	0	0	0	0	0	0	0	0	0	0	0	1	5
145.7412109375	0.100005366415644	298478	157	12	stim12_sf2_pattern2_cont1_shape1.png	0	157	0	358.22748502462	358.327490391036	0.100005366415644	stim12_sf2_pattern2_cont1_shape1.png	2	2	1	1	1	3	0	0	0	0	0	0	0	0	0	0	0	0	1	5
146.2412109375	0.0999962757659887	299502	158	2	stim02_sf1_pattern1_cont2_shape1.png	0	158	0	358.727478426567	358.827474702333	0.0999962757659887	stim02_sf1_pattern1_cont2_shape1.png	1	1	2	1	1	2	0	0	0	0	0	0	0	0	0	0	0	0	1	5
146.7412109375	0.0999971555065713	300526	159	10	stim10_sf2_pattern1_cont2_shape1.png	0	159	0	359.227425788768	359.327422944275	0.0999971555065713	stim10_sf2_pattern1_cont2_shape1.png	2	1	2	1	1	4	0	0	0	0	0	0	0	0	0	0	0	0	1	5
147.2412109375	0.0999522887477724	301550	160	15	stim15_sf2_pattern2_cont2_shape2.png	0	160	0	359.727462884487	359.827415173234	0.0999522887477724	stim15_sf2_pattern2_cont2_shape2.png	2	2	2	2	1	4	0	0	0	0	0	0	0	0	0	0	0	0	1	5
147.7412109375	0.100027946418777	302574	161	4	stim04_sf1_pattern2_cont1_shape1.png	0	161	0	360.227416698117	360.327444644536	0.100027946418777	stim04_sf1_pattern2_cont1_shape1.png	1	2	1	1	1	1	0	0	0	0	0	0	0	0	0	0	0	0	1	5
148.24072265625	0.0999983284937116	303597	162	5	stim05_sf1_pattern2_cont1_shape2.png	0	162	0	360.727444116692	360.827442445186	0.0999983284937116	stim05_sf1_pattern2_cont1_shape2.png	1	2	1	2	1	1	0	0	0	0	0	0	0	0	0	0	0	0	1	5
148.74072265625	0.10001064485823	304621	163	3	stim03_sf1_pattern1_cont2_shape2.png	0	163	0	361.227423442794	361.327434087652	0.10001064485823	stim03_sf1_pattern1_cont2_shape2.png	1	1	2	2	1	2	0	0	0	0	0	0	0	0	0	0	0	0	1	5
149.24072265625	0.100032345120781	305645	164	8	stim08_sf2_pattern1_cont1_shape1.png	0	164	0	361.727396610713	361.827428955834	0.100032345120781	stim08_sf2_pattern1_cont1_shape1.png	2	1	1	1	1	3	0	0	0	0	0	0	0	0	0	0	0	0	1	5
149.74072265625	0.100012697585953	306669	165	7	stim07_sf1_pattern2_cont2_shape2.png	0	165	0	362.227406727726	362.327419425312	0.100012697585953	stim07_sf1_pattern2_cont2_shape2.png	1	2	2	2	1	2	0	0	0	0	0	0	0	0	0	0	0	0	1	5
150.24072265625	0.100002727194806	307693	166	13	stim13_sf2_pattern2_cont1_shape2.png	0	166	0	362.727410979805	362.827413707	0.100002727194806	stim13_sf2_pattern2_cont1_shape2.png	2	2	1	2	1	3	0	0	0	0	0	0	0	0	0	0	0	0	1	5
150.74072265625	0.100000674467083	308717	167	0	stim00_sf1_pattern1_cont1_shape1.png	0	167	0	363.22739910331	363.327399777777	0.100000674467083	stim00_sf1_pattern1_cont1_shape1.png	1	1	1	1	1	1	0	0	0	0	0	0	0	0	0	0	0	0	1	5
629.86865234375	0.099998914986827	1289971	168	8	stim08_sf2_pattern1_cont1_shape1.png	1	0	0	842.361260104918	842.461259019904	0.099998914986827	stim08_sf2_pattern1_cont1_shape1.png	2	1	1	1	1	3	0	0	0	0	0	0	0	0	0	0	0	0	1	5
630.36865234375	0.0999997947274096	1290995	169	4	stim04_sf1_pattern2_cont1_shape1.png	1	1	0	842.861260251541	842.961260046268	0.0999997947274096	stim04_sf1_pattern2_cont1_shape1.png	1	2	1	1	1	1	0	0	0	0	0	0	0	0	0	0	0	0	1	5
630.86865234375	0.100017389534514	1292019	170	1	stim01_sf1_pattern1_cont1_shape2.png	1	2	0	843.361207613743	843.461225003277	0.100017389534514	stim01_sf1_pattern1_cont1_shape2.png	1	1	1	2	1	1	0	0	0	0	0	0	0	0	0	0	0	0	1	5
631.36865234375	0.0999992082333847	1293043	171	2	stim02_sf1_pattern1_cont2_shape1.png	1	3	0	843.861207173872	843.961206382106	0.0999992082333847	stim02_sf1_pattern1_cont2_shape1.png	1	1	2	1	1	2	0	0	0	0	0	0	0	0	0	0	0	0	1	5
631.86865234375	0.100005073169996	1294067	172	5	stim05_sf1_pattern2_cont1_shape2.png	1	4	0	844.361182981012	844.461188054182	0.100005073169996	stim05_sf1_pattern2_cont1_shape2.png	1	2	1	2	1	1	0	0	0	0	0	0	0	0	0	0	0	0	1	5
632.36865234375	0.0999953960254061	1295091	173	3	stim03_sf1_pattern1_cont2_shape2.png	1	5	0	844.861184007376	844.961179403401	0.0999953960254061	stim03_sf1_pattern1_cont2_shape2.png	1	1	2	2	1	2	0	0	0	0	0	0	0	0	0	0	0	0	1	5
632.86865234375	0.0999942230382658	1296115	174	9	stim09_sf2_pattern1_cont1_shape2.png	1	6	0	845.361176529582	845.461170752621	0.0999942230382658	stim09_sf2_pattern1_cont1_shape2.png	2	1	1	2	1	3	0	0	0	0	0	0	0	0	0	0	0	0	1	5
633.36865234375	0.0999962757659887	1297139	175	11	stim11_sf2_pattern1_cont2_shape2.png	1	7	0	845.861166999062	845.961163274828	0.0999962757659887	stim11_sf2_pattern1_cont2_shape2.png	2	1	2	2	1	4	0	0	0	0	0	0	0	0	0	0	0	0	1	5
633.86865234375	0.0999995014808519	1298163	176	10	stim10_sf2_pattern1_cont2_shape1.png	1	8	0	846.361150723865	846.461150225346	0.0999995014808519	stim10_sf2_pattern1_cont2_shape1.png	2	1	2	1	1	4	0	0	0	0	0	0	0	0	0	0	0	0	1	5
634.36865234375	0.0999968622591041	1299187	177	0	stim00_sf1_pattern1_cont1_shape1.png	1	9	0	846.86117814244	846.961175004699	0.0999968622591041	stim00_sf1_pattern1_cont1_shape1.png	1	1	1	1	1	1	0	0	0	0	0	0	0	0	0	0	0	0	1	5
634.86865234375	0.100001847454223	1300211	178	6	stim06_sf1_pattern2_cont2_shape1.png	1	10	0	847.361159814516	847.46116166197	0.100001847454223	stim06_sf1_pattern2_cont2_shape1.png	1	2	2	1	1	2	0	0	0	0	0	0	0	0	0	0	0	0	1	5
635.36865234375	0.100000381220525	1301235	179	14	stim14_sf2_pattern2_cont2_shape1.png	1	11	0	847.861164359841	847.961164741062	0.100000381220525	stim14_sf2_pattern2_cont2_shape1.png	2	2	2	1	1	4	0	0	0	0	0	0	0	0	0	0	0	0	1	5
635.86865234375	0.100001847455133	1302259	180	15	stim15_sf2_pattern2_cont2_shape2.png	1	12	0	848.361164799711	848.461166647166	0.100001847455133	stim15_sf2_pattern2_cont2_shape2.png	2	2	2	2	1	4	0	0	0	0	0	0	0	0	0	0	0	0	1	5
636.36865234375	0.0999921703105429	1303283	181	7	stim07_sf1_pattern2_cont2_shape2.png	1	13	0	848.86116993153	848.961162101841	0.0999921703105429	stim07_sf1_pattern2_cont2_shape2.png	1	2	2	2	1	2	0	0	0	0	0	0	0	0	0	0	0	0	1	5
636.86865234375	0.100020028755353	1304307	182	13	stim13_sf2_pattern2_cont1_shape2.png	1	14	0	849.361147204904	849.461167233659	0.100020028755353	stim13_sf2_pattern2_cont1_shape2.png	2	2	1	2	1	3	0	0	0	0	0	0	0	0	0	0	0	0	1	5
637.36865234375	0.0999971555065713	1305331	183	12	stim12_sf2_pattern2_cont1_shape1.png	1	15	0	849.861145298799	849.961142454306	0.0999971555065713	stim12_sf2_pattern2_cont1_shape1.png	2	2	1	1	1	3	0	0	0	0	0	0	0	0	0	0	0	0	1	5
637.86865234375	0.0999889445956796	1306355	184	13	stim13_sf2_pattern2_cont1_shape2.png	1	16	0	850.361143392696	850.461132337291	0.0999889445956796	stim13_sf2_pattern2_cont1_shape2.png	2	2	1	2	1	3	0	0	0	0	0	0	0	0	0	0	0	0	1	5
638.36865234375	0.0999907040768448	1307379	185	15	stim15_sf2_pattern2_cont2_shape2.png	1	17	0	850.861130929707	850.961121633784	0.0999907040768448	stim15_sf2_pattern2_cont2_shape2.png	2	2	2	2	1	4	0	0	0	0	0	0	0	0	0	0	0	0	1	5
638.86865234375	0.100004779922529	1308403	186	6	stim06_sf1_pattern2_cont2_shape1.png	1	18	0	851.36110556386	851.461110343782	0.100004779922529	stim06_sf1_pattern2_cont2_shape1.png	1	2	2	1	1	2	0	0	0	0	0	0	0	0	0	0	0	0	1	5
639.36865234375	0.099994516285733	1309427	187	9	stim09_sf2_pattern1_cont1_shape2.png	1	19	0	851.861113334899	851.961107851185	0.099994516285733	stim09_sf2_pattern1_cont1_shape2.png	2	1	1	2	1	3	0	0	0	0	0	0	0	0	0	0	0	0	1	5
639.86865234375	0.0999997947274096	1310451	188	11	stim11_sf2_pattern1_cont2_shape2.png	1	20	0	852.361111722042	852.46111151677	0.0999997947274096	stim11_sf2_pattern1_cont2_shape2.png	2	1	2	2	1	4	0	0	0	0	0	0	0	0	0	0	0	0	1	5
640.36865234375	0.0999983284937116	1311475	189	5	stim05_sf1_pattern2_cont1_shape2.png	1	21	0	852.861093980611	852.961092309105	0.0999983284937116	stim05_sf1_pattern2_cont1_shape2.png	1	2	1	2	1	1	0	0	0	0	0	0	0	0	0	0	0	0	1	5
640.86865234375	0.0999663645934561	1312499	190	7	stim07_sf1_pattern2_cont2_shape2.png	1	22	0	853.361091488013	853.461057852607	0.0999663645934561	stim07_sf1_pattern2_cont2_shape2.png	1	2	2	2	1	2	0	0	0	0	0	0	0	0	0	0	0	0	1	5
641.36865234375	0.0999912905708698	1313523	191	2	stim02_sf1_pattern1_cont2_shape1.png	1	23	0	853.861081077752	853.961072368323	0.0999912905708698	stim02_sf1_pattern1_cont2_shape1.png	1	1	2	1	1	2	0	0	0	0	0	0	0	0	0	0	0	0	1	5
641.86865234375	0.0999977419996867	1314547	192	12	stim12_sf2_pattern2_cont1_shape1.png	1	24	0	854.361068614764	854.461066356763	0.0999977419996867	stim12_sf2_pattern2_cont1_shape1.png	2	2	1	1	1	3	0	0	0	0	0	0	0	0	0	0	0	0	1	5
642.36865234375	0.0999915838174275	1315571	193	4	stim04_sf1_pattern2_cont1_shape1.png	1	25	0	854.861064069438	854.961055653256	0.0999915838174275	stim04_sf1_pattern2_cont1_shape1.png	1	2	1	1	1	1	0	0	0	0	0	0	0	0	0	0	0	0	1	5
642.86865234375	0.0999886513491219	1316595	194	14	stim14_sf2_pattern2_cont2_shape1.png	1	26	0	855.361055418658	855.461044070008	0.0999886513491219	stim14_sf2_pattern2_cont2_shape1.png	2	2	2	1	1	4	0	0	0	0	0	0	0	0	0	0	0	0	1	5
643.36865234375	0.100007712390834	1317619	195	3	stim03_sf1_pattern1_cont2_shape2.png	1	27	0	855.861032105538	855.961039817929	0.100007712390834	stim03_sf1_pattern1_cont2_shape2.png	1	1	2	2	1	2	0	0	0	0	0	0	0	0	0	0	0	0	1	5
643.86865234375	0.100004193428504	1318643	196	0	stim00_sf1_pattern1_cont1_shape1.png	1	28	0	856.361024334499	856.461028527927	0.100004193428504	stim00_sf1_pattern1_cont1_shape1.png	1	1	1	1	1	1	0	0	0	0	0	0	0	0	0	0	0	0	1	5
644.36865234375	0.100018855768212	1319667	197	1	stim01_sf1_pattern1_cont1_shape2.png	1	29	0	856.861008352549	856.961027208317	0.100018855768212	stim01_sf1_pattern1_cont1_shape2.png	1	1	1	2	1	1	0	0	0	0	0	0	0	0	0	0	0	0	1	5
644.8681640625	0.0999948095313812	1320690	198	10	stim10_sf2_pattern1_cont2_shape1.png	1	30	0	857.361004686964	857.460999496495	0.0999948095313812	stim10_sf2_pattern1_cont2_shape1.png	2	1	2	1	1	4	0	0	0	0	0	0	0	0	0	0	0	0	1	5
645.3681640625	0.0999728160231825	1321714	199	8	stim08_sf2_pattern1_cont1_shape1.png	1	31	0	857.861011285016	857.960984101039	0.0999728160231825	stim08_sf2_pattern1_cont1_shape1.png	2	1	1	1	1	3	0	0	0	0	0	0	0	0	0	0	0	0	1	5
645.8681640625	0.100022081483075	1322738	200	3	stim03_sf1_pattern1_cont2_shape2.png	1	32	0	858.360974189297	858.46099627078	0.100022081483075	stim03_sf1_pattern1_cont2_shape2.png	1	1	2	2	1	2	0	0	0	0	0	0	0	0	0	0	0	0	1	5
646.3681640625	0.100006246156227	1323762	201	15	stim15_sf2_pattern2_cont2_shape2.png	1	33	0	858.86096348579	858.960969731946	0.100006246156227	stim15_sf2_pattern2_cont2_shape2.png	2	2	2	2	1	4	0	0	0	0	0	0	0	0	0	0	0	0	1	5
646.8681640625	0.0999643118657332	1324786	202	12	stim12_sf2_pattern2_cont1_shape1.png	1	34	0	859.360936067215	859.460900379081	0.0999643118657332	stim12_sf2_pattern2_cont1_shape1.png	2	2	1	1	1	3	0	0	0	0	0	0	0	0	0	0	0	0	1	5
647.3681640625	0.0999921703114524	1325810	203	8	stim08_sf2_pattern1_cont1_shape1.png	1	35	0	859.860936800331	859.960928970643	0.0999921703114524	stim08_sf2_pattern1_cont1_shape1.png	2	1	1	1	1	3	0	0	0	0	0	0	0	0	0	0	0	0	1	5
647.8681640625	0.0999848391411433	1326834	204	4	stim04_sf1_pattern2_cont1_shape1.png	1	36	0	860.360948970073	860.460933809215	0.0999848391411433	stim04_sf1_pattern2_cont1_shape1.png	1	2	1	1	1	1	0	0	0	0	0	0	0	0	0	0	0	0	1	5
648.3681640625	0.0999798539451149	1327858	205	5	stim05_sf1_pattern2_cont1_shape2.png	1	37	0	860.86091773929	860.960897593236	0.0999798539451149	stim05_sf1_pattern2_cont1_shape2.png	1	2	1	2	1	1	0	0	0	0	0	0	0	0	0	0	0	0	1	5
648.8681640625	0.100024427457356	1328882	206	6	stim06_sf1_pattern2_cont2_shape1.png	1	38	0	861.360882403052	861.460906830509	0.100024427457356	stim06_sf1_pattern2_cont2_shape1.png	1	2	2	1	1	2	0	0	0	0	0	0	0	0	0	0	0	0	1	5
649.3681640625	0.099985132387701	1329906	207	14	stim14_sf2_pattern2_cont2_shape1.png	1	39	0	861.860928882668	861.960914015056	0.099985132387701	stim14_sf2_pattern2_cont2_shape1.png	2	2	2	1	1	4	0	0	0	0	0	0	0	0	0	0	0	0	1	5
649.8681640625	0.100025307197939	1330930	208	11	stim11_sf2_pattern1_cont2_shape2.png	1	40	0	862.36088621526	862.460911522458	0.100025307197939	stim11_sf2_pattern1_cont2_shape2.png	2	1	2	2	1	4	0	0	0	0	0	0	0	0	0	0	0	0	1	5
650.3681640625	0.0999918770639852	1331954	209	13	stim13_sf2_pattern2_cont1_shape2.png	1	41	0	862.860921551498	862.960913428562	0.0999918770639852	stim13_sf2_pattern2_cont1_shape2.png	2	2	1	2	1	3	0	0	0	0	0	0	0	0	0	0	0	0	1	5
650.8681640625	0.100003606936298	1332978	210	9	stim09_sf2_pattern1_cont1_shape2.png	1	42	0	863.360910554743	863.46091416168	0.100003606936298	stim09_sf2_pattern1_cont1_shape2.png	2	1	1	2	1	3	0	0	0	0	0	0	0	0	0	0	0	0	1	5
651.3681640625	0.0999901175828199	1334002	211	0	stim00_sf1_pattern1_cont1_shape1.png	1	43	0	863.860923604226	863.960913721809	0.0999901175828199	stim00_sf1_pattern1_cont1_shape1.png	1	1	1	1	1	1	0	0	0	0	0	0	0	0	0	0	0	0	1	5
651.8681640625	0.0999868918679567	1335026	212	10	stim10_sf2_pattern1_cont2_shape1.png	1	44	0	864.360915246693	864.460902138561	0.0999868918679567	stim10_sf2_pattern1_cont2_shape1.png	2	1	2	1	1	4	0	0	0	0	0	0	0	0	0	0	0	0	1	5
652.3681640625	0.10002032200282	1336050	213	2	stim02_sf1_pattern1_cont2_shape1.png	1	45	0	864.86087668474	864.960897006742	0.10002032200282	stim02_sf1_pattern1_cont2_shape1.png	1	1	2	1	1	2	0	0	0	0	0	0	0	0	0	0	0	0	1	5
652.8681640625	0.10000096771455	1337074	214	1	stim01_sf1_pattern1_cont1_shape2.png	1	46	0	865.360874485389	865.460875453103	0.10000096771455	stim01_sf1_pattern1_cont1_shape2.png	1	1	1	2	1	1	0	0	0	0	0	0	0	0	0	0	0	0	1	5
653.3681640625	0.0999845458936761	1338098	215	7	stim07_sf1_pattern2_cont2_shape2.png	1	47	0	865.860889001105	865.960873546999	0.0999845458936761	stim07_sf1_pattern2_cont2_shape2.png	1	2	2	2	1	2	0	0	0	0	0	0	0	0	0	0	0	0	1	5
653.8681640625	0.0999942230382658	1339122	216	3	stim03_sf1_pattern1_cont2_shape2.png	1	48	0	866.360873898895	866.460868121933	0.0999942230382658	stim03_sf1_pattern1_cont2_shape2.png	1	1	2	2	1	2	0	0	0	0	0	0	0	0	0	0	0	0	1	5
654.3681640625	0.0999965690125464	1340146	217	4	stim04_sf1_pattern2_cont1_shape1.png	1	49	0	866.860859383179	866.960855952192	0.0999965690125464	stim04_sf1_pattern2_cont1_shape1.png	1	2	1	1	1	1	0	0	0	0	0	0	0	0	0	0	0	0	1	5
654.8681640625	0.100003313688831	1341170	218	1	stim01_sf1_pattern1_cont1_shape2.png	1	50	0	867.360840175514	867.460843489203	0.100003313688831	stim01_sf1_pattern1_cont1_shape2.png	1	1	1	2	1	1	0	0	0	0	0	0	0	0	0	0	0	0	1	5
655.3681640625	0.100014457066209	1342194	219	13	stim13_sf2_pattern2_cont1_shape2.png	1	51	0	867.860808944731	867.960823401797	0.100014457066209	stim13_sf2_pattern2_cont1_shape2.png	2	2	1	2	1	3	0	0	0	0	0	0	0	0	0	0	0	0	1	5
655.8681640625	0.100011524598813	1343218	220	14	stim14_sf2_pattern2_cont2_shape1.png	1	52	0	868.360822580707	868.460834105306	0.100011524598813	stim14_sf2_pattern2_cont2_shape1.png	2	2	2	1	1	4	0	0	0	0	0	0	0	0	0	0	0	0	1	5
656.3681640625	0.099969883554877	1344242	221	11	stim11_sf2_pattern1_cont2_shape2.png	1	53	0	868.860830351746	868.960800235301	0.099969883554877	stim11_sf2_pattern1_cont2_shape2.png	2	1	2	2	1	4	0	0	0	0	0	0	0	0	0	0	0	0	1	5
656.8681640625	0.0999584469300316	1345266	222	6	stim06_sf1_pattern2_cont2_shape1.png	1	54	0	869.360825219928	869.460783666858	0.0999584469300316	stim06_sf1_pattern2_cont2_shape1.png	1	2	2	1	1	2	0	0	0	0	0	0	0	0	0	0	0	0	1	5
657.3681640625	0.0999956892719638	1346290	223	0	stim00_sf1_pattern1_cont1_shape1.png	1	55	0	869.860812170446	869.960807859718	0.0999956892719638	stim00_sf1_pattern1_cont1_shape1.png	1	1	1	1	1	1	0	0	0	0	0	0	0	0	0	0	0	0	1	5
657.8681640625	0.100004486675971	1347314	224	8	stim08_sf2_pattern1_cont1_shape1.png	1	56	0	870.36078944382	870.460793930496	0.100004486675971	stim08_sf2_pattern1_cont1_shape1.png	2	1	1	1	1	3	0	0	0	0	0	0	0	0	0	0	0	0	1	5
658.3681640625	0.0999775079708343	1348338	225	9	stim09_sf2_pattern1_cont1_shape2.png	1	57	0	870.860796041873	870.960773549843	0.0999775079708343	stim09_sf2_pattern1_cont1_shape2.png	2	1	1	2	1	3	0	0	0	0	0	0	0	0	0	0	0	0	1	5
658.8681640625	0.100006246156227	1349362	226	2	stim02_sf1_pattern1_cont2_shape1.png	1	58	0	871.360787097845	871.460793344002	0.100006246156227	stim02_sf1_pattern1_cont2_shape1.png	1	1	2	1	1	2	0	0	0	0	0	0	0	0	0	0	0	0	1	5
659.3681640625	0.0999933432976832	1350386	227	7	stim07_sf1_pattern2_cont2_shape2.png	1	59	0	871.860779913299	871.960773256597	0.0999933432976832	stim07_sf1_pattern2_cont2_shape2.png	1	2	2	2	1	2	0	0	0	0	0	0	0	0	0	0	0	0	1	5
659.8681640625	0.0999948095322907	1351410	228	10	stim10_sf2_pattern1_cont2_shape1.png	1	60	0	872.360773021999	872.460767831531	0.0999948095322907	stim10_sf2_pattern1_cont2_shape1.png	2	1	2	1	1	4	0	0	0	0	0	0	0	0	0	0	0	0	1	5
660.3681640625	0.0999901175828199	1352434	229	5	stim05_sf1_pattern2_cont1_shape2.png	1	61	0	872.860765544206	872.960755661789	0.0999901175828199	stim05_sf1_pattern2_cont1_shape2.png	1	2	1	2	1	1	0	0	0	0	0	0	0	0	0	0	0	0	1	5
660.8681640625	0.0999754552440208	1353458	230	15	stim15_sf2_pattern2_cont2_shape2.png	1	62	0	873.360740471605	873.460715926849	0.0999754552440208	stim15_sf2_pattern2_cont2_shape2.png	2	2	2	2	1	4	0	0	0	0	0	0	0	0	0	0	0	0	1	5
661.3681640625	0.0999868918679567	1354482	231	12	stim12_sf2_pattern2_cont1_shape1.png	1	63	0	873.860703375887	873.960690267755	0.0999868918679567	stim12_sf2_pattern2_cont1_shape1.png	2	2	1	1	1	3	0	0	0	0	0	0	0	0	0	0	0	0	1	5
661.86767578125	0.0999997947274096	1355505	232	3	stim03_sf1_pattern1_cont2_shape2.png	1	64	0	874.360686514196	874.460686308923	0.0999997947274096	stim03_sf1_pattern1_cont2_shape2.png	1	1	2	2	1	2	0	0	0	0	0	0	0	0	0	0	0	0	1	5
662.36767578125	0.0999942230382658	1356529	233	2	stim02_sf1_pattern1_cont2_shape1.png	1	65	0	874.860687833806	874.960682056845	0.0999942230382658	stim02_sf1_pattern1_cont2_shape1.png	1	1	2	1	1	2	0	0	0	0	0	0	0	0	0	0	0	0	1	5
662.86767578125	0.100023547717683	1357553	234	4	stim04_sf1_pattern2_cont1_shape1.png	1	66	0	875.360668626141	875.460692173859	0.100023547717683	stim04_sf1_pattern2_cont1_shape1.png	1	2	1	1	1	1	0	0	0	0	0	0	0	0	0	0	0	0	1	5
663.36767578125	0.100008885377065	1358577	235	7	stim07_sf1_pattern2_cont2_shape2.png	1	67	0	875.860678156663	875.96068704204	0.100008885377065	stim07_sf1_pattern2_cont2_shape2.png	1	2	2	2	1	2	0	0	0	0	0	0	0	0	0	0	0	0	1	5
663.86767578125	0.099985132387701	1359601	236	0	stim00_sf1_pattern1_cont1_shape1.png	1	68	0	876.360694431859	876.460679564247	0.099985132387701	stim00_sf1_pattern1_cont1_shape1.png	1	1	1	1	1	1	0	0	0	0	0	0	0	0	0	0	0	0	1	5
664.36767578125	0.0999953960254061	1360625	237	12	stim12_sf2_pattern2_cont1_shape1.png	1	69	0	876.860686954066	876.960682350091	0.0999953960254061	stim12_sf2_pattern2_cont1_shape1.png	2	2	1	1	1	3	0	0	0	0	0	0	0	0	0	0	0	0	1	5
664.86767578125	0.0999907040759354	1361649	238	11	stim11_sf2_pattern1_cont2_shape2.png	1	70	0	877.360676837052	877.460667541128	0.0999907040759354	stim11_sf2_pattern1_cont2_shape2.png	2	1	2	2	1	4	0	0	0	0	0	0	0	0	0	0	0	0	1	5
665.36767578125	0.0999953960254061	1362673	239	9	stim09_sf2_pattern1_cont1_shape2.png	1	71	0	877.860669066012	877.960664462038	0.0999953960254061	stim09_sf2_pattern1_cont1_shape2.png	2	1	1	2	1	3	0	0	0	0	0	0	0	0	0	0	0	0	1	5
665.86767578125	0.100008298883949	1363697	240	6	stim06_sf1_pattern2_cont2_shape1.png	1	72	0	878.360646632632	878.460654931516	0.100008298883949	stim06_sf1_pattern2_cont2_shape1.png	1	2	2	1	1	2	0	0	0	0	0	0	0	0	0	0	0	0	1	5
666.36767578125	0.0999995014808519	1364721	241	5	stim05_sf1_pattern2_cont1_shape2.png	1	73	0	878.860674051207	878.960673552688	0.0999995014808519	stim05_sf1_pattern2_cont1_shape2.png	1	2	1	2	1	1	0	0	0	0	0	0	0	0	0	0	0	0	1	5
666.86767578125	0.0999986217402693	1365745	242	14	stim14_sf2_pattern2_cont2_shape1.png	1	74	0	879.360653084062	879.460651705802	0.0999986217402693	stim14_sf2_pattern2_cont2_shape1.png	2	2	2	1	1	4	0	0	0	0	0	0	0	0	0	0	0	0	1	5
667.36767578125	0.0999986217402693	1366769	243	8	stim08_sf2_pattern1_cont1_shape1.png	1	75	0	879.860648538737	879.960647160477	0.0999986217402693	stim08_sf2_pattern1_cont1_shape1.png	2	1	1	1	1	3	0	0	0	0	0	0	0	0	0	0	0	0	1	5
667.86767578125	0.0999924635571006	1367793	244	15	stim15_sf2_pattern2_cont2_shape2.png	1	76	0	880.360644873152	880.460637336709	0.0999924635571006	stim15_sf2_pattern2_cont2_shape2.png	2	2	2	2	1	4	0	0	0	0	0	0	0	0	0	0	0	0	1	5
668.36767578125	0.0999634321251506	1368817	245	1	stim01_sf1_pattern1_cont1_shape2.png	1	77	0	880.860641207567	880.960604639693	0.0999634321251506	stim01_sf1_pattern1_cont1_shape2.png	1	1	1	2	1	1	0	0	0	0	0	0	0	0	0	0	0	0	1	5
668.86767578125	0.100011524598813	1369841	246	13	stim13_sf2_pattern2_cont1_shape2.png	1	78	0	881.360609683537	881.460621208136	0.100011524598813	stim13_sf2_pattern2_cont1_shape2.png	2	2	1	2	1	3	0	0	0	0	0	0	0	0	0	0	0	0	1	5
669.36767578125	0.099995982519431	1370865	247	10	stim10_sf2_pattern1_cont2_shape1.png	1	79	0	881.860616574837	881.960612557356	0.099995982519431	stim10_sf2_pattern1_cont2_shape1.png	2	1	2	1	1	4	0	0	0	0	0	0	0	0	0	0	0	0	1	5
669.86767578125	0.099983666154003	1371889	248	15	stim15_sf2_pattern2_cont2_shape2.png	1	80	0	882.360610563278	882.460594229432	0.099983666154003	stim15_sf2_pattern2_cont2_shape2.png	2	2	2	2	1	4	0	0	0	0	0	0	0	0	0	0	0	0	1	5
670.36767578125	0.100003900182855	1372913	249	6	stim06_sf1_pattern2_cont2_shape1.png	1	81	0	882.860595167821	882.960599068003	0.100003900182855	stim06_sf1_pattern2_cont2_shape1.png	1	2	2	1	1	2	0	0	0	0	0	0	0	0	0	0	0	0	1	5
670.86767578125	0.0999942230382658	1373937	250	14	stim14_sf2_pattern2_cont2_shape1.png	1	82	0	883.360591208989	883.460585432028	0.0999942230382658	stim14_sf2_pattern2_cont2_shape1.png	2	2	2	1	1	4	0	0	0	0	0	0	0	0	0	0	0	0	1	5
671.36767578125	0.0999962757659887	1374961	251	13	stim13_sf2_pattern2_cont1_shape2.png	1	83	0	883.86058607717	883.960582352936	0.0999962757659887	stim13_sf2_pattern2_cont1_shape2.png	2	2	1	2	1	3	0	0	0	0	0	0	0	0	0	0	0	0	1	5
671.86767578125	0.0999854256342587	1375985	252	0	stim00_sf1_pattern1_cont1_shape1.png	1	84	0	884.360582118339	884.460567543973	0.0999854256342587	stim00_sf1_pattern1_cont1_shape1.png	1	1	1	1	1	1	0	0	0	0	0	0	0	0	0	0	0	0	1	5
672.36767578125	0.100025600444496	1377009	253	8	stim08_sf2_pattern1_cont1_shape1.png	1	85	0	884.860539744177	884.960565344622	0.100025600444496	stim08_sf2_pattern1_cont1_shape1.png	2	1	1	1	1	3	0	0	0	0	0	0	0	0	0	0	0	0	1	5
672.86767578125	0.099998914986827	1378033	254	3	stim03_sf1_pattern1_cont2_shape2.png	1	86	0	885.360549274698	885.460548189685	0.099998914986827	stim03_sf1_pattern1_cont2_shape2.png	1	1	2	2	1	2	0	0	0	0	0	0	0	0	0	0	0	0	1	5
673.36767578125	0.0999986217402693	1379057	255	4	stim04_sf1_pattern2_cont1_shape1.png	1	87	0	885.860551474049	885.960550095789	0.0999986217402693	stim04_sf1_pattern2_cont1_shape1.png	1	2	1	1	1	1	0	0	0	0	0	0	0	0	0	0	0	0	1	5
673.86767578125	0.100006832650251	1380081	256	1	stim01_sf1_pattern1_cont1_shape2.png	1	88	0	886.360526987942	886.460533820592	0.100006832650251	stim01_sf1_pattern1_cont1_shape2.png	1	1	1	2	1	1	0	0	0	0	0	0	0	0	0	0	0	0	1	5
674.36767578125	0.099988064855097	1381105	257	5	stim05_sf1_pattern2_cont1_shape2.png	1	89	0	886.860545315867	886.960533380722	0.099988064855097	stim05_sf1_pattern2_cont1_shape2.png	1	2	1	2	1	1	0	0	0	0	0	0	0	0	0	0	0	0	1	5
674.86767578125	0.100010058364205	1382129	258	9	stim09_sf2_pattern1_cont1_shape2.png	1	90	0	887.360509393135	887.460519451499	0.100010058364205	stim09_sf2_pattern1_cont1_shape2.png	2	1	1	2	1	3	0	0	0	0	0	0	0	0	0	0	0	0	1	5
675.36767578125	0.099998914986827	1383153	259	7	stim07_sf1_pattern2_cont2_shape2.png	1	91	0	887.860515697941	887.960514612927	0.099998914986827	stim07_sf1_pattern2_cont2_shape2.png	1	2	2	2	1	2	0	0	0	0	0	0	0	0	0	0	0	0	1	5
675.86767578125	0.100010058365115	1384177	260	12	stim12_sf2_pattern2_cont1_shape1.png	1	92	0	888.360491505081	888.460501563446	0.100010058365115	stim12_sf2_pattern2_cont1_shape1.png	2	2	1	1	1	3	0	0	0	0	0	0	0	0	0	0	0	0	1	5
676.36767578125	0.0999918770639852	1385201	261	2	stim02_sf1_pattern1_cont2_shape1.png	1	93	0	888.86048109482	888.960472971884	0.0999918770639852	stim02_sf1_pattern1_cont2_shape1.png	1	1	2	1	1	2	0	0	0	0	0	0	0	0	0	0	0	0	1	5
676.86767578125	0.0999613793983372	1386225	262	10	stim10_sf2_pattern1_cont2_shape1.png	1	94	0	889.360502355211	889.46046373461	0.0999613793983372	stim10_sf2_pattern1_cont2_shape1.png	2	1	2	1	1	4	0	0	0	0	0	0	0	0	0	0	0	0	1	5
677.36767578125	0.100007712389925	1387249	263	11	stim11_sf2_pattern1_cont2_shape2.png	1	95	0	889.860433882086	889.960441594476	0.100007712389925	stim11_sf2_pattern1_cont2_shape2.png	2	1	2	2	1	4	0	0	0	0	0	0	0	0	0	0	0	0	1	5
677.86767578125	0.0999587401765893	1388273	264	3	stim03_sf1_pattern1_cont2_shape2.png	1	96	0	890.360467165597	890.460425905774	0.0999587401765893	stim03_sf1_pattern1_cont2_shape2.png	1	1	2	2	1	2	0	0	0	0	0	0	0	0	0	0	0	0	1	5
678.36767578125	0.0999898243371717	1389297	265	6	stim06_sf1_pattern2_cont2_shape1.png	1	97	0	890.860433588839	890.960423413176	0.0999898243371717	stim06_sf1_pattern2_cont2_shape1.png	1	2	2	1	1	2	0	0	0	0	0	0	0	0	0	0	0	0	1	5
678.8671875	0.0999848391411433	1390320	266	0	stim00_sf1_pattern1_cont1_shape1.png	1	98	0	891.360431096241	891.460415935383	0.0999848391411433	stim00_sf1_pattern1_cont1_shape1.png	1	1	1	1	1	1	0	0	0	0	0	0	0	0	0	0	0	0	1	5
679.3671875	0.0999962757650792	1391344	267	12	stim12_sf2_pattern2_cont1_shape1.png	1	99	0	891.860436228061	891.960432503826	0.0999962757650792	stim12_sf2_pattern2_cont1_shape1.png	2	2	1	1	1	3	0	0	0	0	0	0	0	0	0	0	0	0	1	5
679.8671875	0.0999748687499959	1392368	268	9	stim09_sf2_pattern1_cont1_shape2.png	1	100	0	892.360451037024	892.460425905774	0.0999748687499959	stim09_sf2_pattern1_cont1_shape2.png	2	1	1	2	1	3	0	0	0	0	0	0	0	0	0	0	0	0	1	5
680.3671875	0.0999889445956796	1393392	269	4	stim04_sf1_pattern2_cont1_shape1.png	1	101	0	892.860431829359	892.960420773954	0.0999889445956796	stim04_sf1_pattern2_cont1_shape1.png	1	2	1	1	1	1	0	0	0	0	0	0	0	0	0	0	0	0	1	5
680.8671875	0.10000096771455	1394416	270	7	stim07_sf1_pattern2_cont2_shape2.png	1	102	0	893.360402358056	893.460403325771	0.10000096771455	stim07_sf1_pattern2_cont2_shape2.png	1	2	2	2	1	2	0	0	0	0	0	0	0	0	0	0	0	0	1	5
681.3671875	0.0999965690125464	1395440	271	10	stim10_sf2_pattern1_cont2_shape1.png	1	103	0	893.860432122605	893.960428691618	0.0999965690125464	stim10_sf2_pattern1_cont2_shape1.png	2	1	2	1	1	4	0	0	0	0	0	0	0	0	0	0	0	0	1	5
681.8671875	0.100015336806791	1396464	272	2	stim02_sf1_pattern1_cont2_shape1.png	1	104	0	894.360407636499	894.460422973305	0.100015336806791	stim02_sf1_pattern1_cont2_shape1.png	1	1	2	1	1	2	0	0	0	0	0	0	0	0	0	0	0	0	1	5
682.3671875	0.099976334983694	1397488	273	13	stim13_sf2_pattern2_cont1_shape2.png	1	105	0	894.860417753513	894.960394088497	0.099976334983694	stim13_sf2_pattern2_cont1_shape2.png	2	2	1	2	1	3	0	0	0	0	0	0	0	0	0	0	0	0	1	5
682.8671875	0.0999918770639852	1398512	274	1	stim01_sf1_pattern1_cont1_shape2.png	1	106	0	895.36040382429	895.460395701354	0.0999918770639852	stim01_sf1_pattern1_cont1_shape2.png	1	1	1	2	1	1	0	0	0	0	0	0	0	0	0	0	0	0	1	5
683.3671875	0.100000674467992	1399536	275	5	stim05_sf1_pattern2_cont1_shape2.png	1	107	0	895.860398985718	895.960399660186	0.100000674467992	stim05_sf1_pattern2_cont1_shape2.png	1	2	1	2	1	1	0	0	0	0	0	0	0	0	0	0	0	0	1	5
683.8671875	0.100002433948248	1400560	276	11	stim11_sf2_pattern1_cont2_shape2.png	1	108	0	896.36037098065	896.460373414598	0.100002433948248	stim11_sf2_pattern1_cont2_shape2.png	2	1	2	2	1	4	0	0	0	0	0	0	0	0	0	0	0	0	1	5
684.3671875	0.0999704700489019	1401584	277	15	stim15_sf2_pattern2_cont2_shape2.png	1	109	0	896.860376112468	896.960346582517	0.0999704700489019	stim15_sf2_pattern2_cont2_shape2.png	2	2	2	2	1	4	0	0	0	0	0	0	0	0	0	0	0	0	1	5
684.8671875	0.099998914986827	1402608	278	8	stim08_sf2_pattern1_cont1_shape1.png	1	110	0	897.360355731817	897.460354646804	0.099998914986827	stim08_sf2_pattern1_cont1_shape1.png	2	1	1	1	1	3	0	0	0	0	0	0	0	0	0	0	0	0	1	5
685.3671875	0.0999962757650792	1403632	279	14	stim14_sf2_pattern2_cont2_shape1.png	1	111	0	897.860360570389	897.960356846154	0.0999962757650792	stim14_sf2_pattern2_cont2_shape1.png	2	2	2	1	1	4	0	0	0	0	0	0	0	0	0	0	0	0	1	5
685.8671875	0.0999901175828199	1404656	280	5	stim05_sf1_pattern2_cont1_shape2.png	1	112	0	898.360354852076	898.460344969659	0.0999901175828199	stim05_sf1_pattern2_cont1_shape2.png	1	2	1	2	1	1	0	0	0	0	0	0	0	0	0	0	0	0	1	5
686.3671875	0.0999992082333847	1405680	281	8	stim08_sf2_pattern1_cont1_shape1.png	1	113	0	898.860339749867	898.9603389581	0.0999992082333847	stim08_sf2_pattern1_cont1_shape1.png	2	1	1	1	1	3	0	0	0	0	0	0	0	0	0	0	0	0	1	5
686.8671875	0.0999980352462444	1406704	282	1	stim01_sf1_pattern1_cont1_shape2.png	1	114	0	899.360322008436	899.460320043682	0.0999980352462444	stim01_sf1_pattern1_cont1_shape2.png	1	1	1	2	1	1	0	0	0	0	0	0	0	0	0	0	0	0	1	5
687.3671875	0.0999930500511255	1407728	283	7	stim07_sf1_pattern2_cont2_shape2.png	1	115	0	899.860330659216	899.960323709267	0.0999930500511255	stim07_sf1_pattern2_cont2_shape2.png	1	2	2	2	1	2	0	0	0	0	0	0	0	0	0	0	0	0	1	5
687.8671875	0.100012111092838	1408752	284	3	stim03_sf1_pattern1_cont2_shape2.png	1	116	0	900.360306173109	900.460318284202	0.100012111092838	stim03_sf1_pattern1_cont2_shape2.png	1	1	2	2	1	2	0	0	0	0	0	0	0	0	0	0	0	0	1	5
688.3671875	0.0999989149877365	1409776	285	15	stim15_sf2_pattern2_cont2_shape2.png	1	117	0	900.860309838693	900.960308753681	0.0999989149877365	stim15_sf2_pattern2_cont2_shape2.png	2	2	2	2	1	4	0	0	0	0	0	0	0	0	0	0	0	0	1	5
688.8671875	0.100004193429413	1410800	286	0	stim00_sf1_pattern1_cont1_shape1.png	1	118	0	901.36028505934	901.46028925277	0.100004193429413	stim00_sf1_pattern1_cont1_shape1.png	1	1	1	1	1	1	0	0	0	0	0	0	0	0	0	0	0	0	1	5
689.3671875	0.100002727194806	1411824	287	12	stim12_sf2_pattern2_cont1_shape1.png	1	119	0	901.860298695316	901.960301422511	0.100002727194806	stim12_sf2_pattern2_cont1_shape1.png	2	2	1	1	1	3	0	0	0	0	0	0	0	0	0	0	0	0	1	5
689.8671875	0.100000674467992	1412848	288	13	stim13_sf2_pattern2_cont1_shape2.png	1	120	0	902.360276261936	902.460276936404	0.100000674467992	stim13_sf2_pattern2_cont1_shape2.png	2	2	1	2	1	3	0	0	0	0	0	0	0	0	0	0	0	0	1	5
690.3671875	0.099972816022273	1413872	289	4	stim04_sf1_pattern2_cont1_shape1.png	1	121	0	902.860280514015	902.960253330037	0.099972816022273	stim04_sf1_pattern2_cont1_shape1.png	1	2	1	1	1	1	0	0	0	0	0	0	0	0	0	0	0	0	1	5
690.8671875	0.0999968622600136	1414896	290	11	stim11_sf2_pattern1_cont2_shape2.png	1	122	0	903.360271863234	903.460268725494	0.0999968622600136	stim11_sf2_pattern1_cont2_shape2.png	2	1	2	2	1	4	0	0	0	0	0	0	0	0	0	0	0	0	1	5
691.3671875	0.100002433949157	1415920	291	10	stim10_sf2_pattern1_cont2_shape1.png	1	123	0	903.860255881284	903.960258315233	0.100002433949157	stim10_sf2_pattern1_cont2_shape1.png	2	1	2	1	1	4	0	0	0	0	0	0	0	0	0	0	0	0	1	5
691.8671875	0.0999657780994312	1416944	292	2	stim02_sf1_pattern1_cont2_shape1.png	1	124	0	904.360254561674	904.460220339773	0.0999657780994312	stim02_sf1_pattern1_cont2_shape1.png	1	1	2	1	1	2	0	0	0	0	0	0	0	0	0	0	0	0	1	5
692.3671875	0.0999962757659887	1417968	293	9	stim09_sf2_pattern1_cont1_shape2.png	1	125	0	904.86019136699	904.960187642756	0.0999962757659887	stim09_sf2_pattern1_cont1_shape2.png	2	1	1	2	1	3	0	0	0	0	0	0	0	0	0	0	0	0	1	5
692.8671875	0.0999971555056618	1418992	294	14	stim14_sf2_pattern2_cont2_shape1.png	1	126	0	905.360187408159	905.460184563665	0.0999971555056618	stim14_sf2_pattern2_cont2_shape1.png	2	2	2	1	1	4	0	0	0	0	0	0	0	0	0	0	0	0	1	5
693.3671875	0.100016216547374	1420016	295	6	stim06_sf1_pattern2_cont2_shape1.png	1	127	0	905.860190194003	905.960206410551	0.100016216547374	stim06_sf1_pattern2_cont2_shape1.png	1	2	2	1	1	2	0	0	0	0	0	0	0	0	0	0	0	0	1	5
693.8671875	0.0999962757659887	1421040	296	12	stim12_sf2_pattern2_cont1_shape1.png	1	128	0	906.360173332313	906.460169608079	0.0999962757659887	stim12_sf2_pattern2_cont1_shape1.png	2	2	1	1	1	3	0	0	0	0	0	0	0	0	0	0	0	0	1	5
694.3671875	0.100007712389925	1422064	297	3	stim03_sf1_pattern1_cont2_shape2.png	1	129	0	906.860171426209	906.960179138599	0.100007712389925	stim03_sf1_pattern1_cont2_shape2.png	1	1	2	2	1	2	0	0	0	0	0	0	0	0	0	0	0	0	1	5
694.8671875	0.10000096771455	1423088	298	2	stim02_sf1_pattern1_cont2_shape1.png	1	130	0	907.360181249976	907.460182217691	0.10000096771455	stim02_sf1_pattern1_cont2_shape1.png	1	1	2	1	1	2	0	0	0	0	0	0	0	0	0	0	0	0	1	5
695.3671875	0.10002149498996	1424112	299	13	stim13_sf2_pattern2_cont1_shape2.png	1	131	0	907.860162922052	907.960184417042	0.10002149498996	stim13_sf2_pattern2_cont1_shape2.png	2	2	1	2	1	3	0	0	0	0	0	0	0	0	0	0	0	0	1	5
695.8671875	0.099997448753129	1425136	300	15	stim15_sf2_pattern2_cont2_shape2.png	1	132	0	908.360174212053	908.460171660806	0.099997448753129	stim15_sf2_pattern2_cont2_shape2.png	2	2	2	2	1	4	0	0	0	0	0	0	0	0	0	0	0	0	1	5
696.36669921875	0.100016216547374	1426159	301	6	stim06_sf1_pattern2_cont2_shape1.png	1	133	0	908.86017230595	908.960188522497	0.100016216547374	stim06_sf1_pattern2_cont2_shape1.png	1	2	2	1	1	2	0	0	0	0	0	0	0	0	0	0	0	0	1	5
696.86669921875	0.0999904108293777	1427183	302	4	stim04_sf1_pattern2_cont1_shape1.png	1	134	1	909.360185062185	909.460175473014	0.0999904108293777	stim04_sf1_pattern2_cont1_shape1.png	1	2	1	1	1	1	0	0	0	0	0	0	0	0	0	0	0	0	1	5
697.36669921875	0.100016216547374	1428207	303	4	stim04_sf1_pattern2_cont1_shape1.png	1	135	1	909.860157936856	909.960174153404	0.100016216547374	stim04_sf1_pattern2_cont1_shape1.png	1	2	1	1	1	1	0	0	0	0	0	0	0	0	0	0	0	0	1	5
697.86669921875	0.100014457067118	1429231	304	7	stim07_sf1_pattern2_cont2_shape2.png	1	136	2	910.360144300881	910.460158757948	0.100014457067118	stim07_sf1_pattern2_cont2_shape2.png	1	2	2	2	1	2	0	0	0	0	0	0	0	0	0	0	0	0	1	5
698.36669921875	0.0999769214777189	1430255	305	2	stim02_sf1_pattern1_cont2_shape1.png	1	137	2	910.860147379972	910.96012430145	0.0999769214777189	stim02_sf1_pattern1_cont2_shape1.png	1	1	2	1	1	2	0	0	0	0	0	0	0	0	0	0	0	0	1	5
698.86669921875	0.0999968622591041	1431279	306	11	stim11_sf2_pattern1_cont2_shape2.png	1	138	0	911.360135796724	911.460132658983	0.0999968622591041	stim11_sf2_pattern1_cont2_shape2.png	2	1	2	2	1	4	0	0	0	0	0	0	0	0	0	0	0	0	1	5
699.36669921875	0.100003606935388	1432303	307	14	stim14_sf2_pattern2_cont2_shape1.png	1	139	0	911.860138875815	911.96014248275	0.100003606935388	stim14_sf2_pattern2_cont2_shape1.png	2	2	2	1	1	4	0	0	0	0	0	0	0	0	0	0	0	0	1	5
699.86669921875	0.100013284079978	1433327	308	7	stim07_sf1_pattern2_cont2_shape2.png	1	140	0	912.360115562695	912.460128846775	0.100013284079978	stim07_sf1_pattern2_cont2_shape2.png	1	2	2	2	1	2	0	0	0	0	0	0	0	0	0	0	0	0	1	5
700.36669921875	0.100003313687921	1434351	309	4	stim04_sf1_pattern2_cont1_shape1.png	1	141	0	912.860123040489	912.960126354177	0.100003313687921	stim04_sf1_pattern2_cont1_shape1.png	1	2	1	1	1	1	0	0	0	0	0	0	0	0	0	0	0	0	1	5
700.86669921875	0.100013870573093	1435375	310	9	stim09_sf2_pattern1_cont1_shape2.png	1	142	0	913.360098554381	913.460112424954	0.100013870573093	stim09_sf2_pattern1_cont1_shape2.png	2	1	1	2	1	3	0	0	0	0	0	0	0	0	0	0	0	0	1	5
701.36669921875	0.100000087974877	1436399	311	0	stim00_sf1_pattern1_cont1_shape1.png	1	143	0	913.860106911914	913.960106999889	0.100000087974877	stim00_sf1_pattern1_cont1_shape1.png	1	1	1	1	1	1	0	0	0	0	0	0	0	0	0	0	0	0	1	5
701.86669921875	0.0999839594005607	1437423	312	5	stim05_sf1_pattern2_cont1_shape2.png	1	144	0	914.360103539577	914.460087498978	0.0999839594005607	stim05_sf1_pattern2_cont1_shape2.png	1	2	1	2	1	1	0	0	0	0	0	0	0	0	0	0	0	0	1	5
702.36669921875	0.100007125896809	1438447	313	8	stim08_sf2_pattern1_cont1_shape1.png	1	145	0	914.860086677887	914.960093803783	0.100007125896809	stim08_sf2_pattern1_cont1_shape1.png	2	1	1	1	1	3	0	0	0	0	0	0	0	0	0	0	0	0	1	5
702.86669921875	0.100009765118557	1439471	314	10	stim10_sf2_pattern1_cont2_shape1.png	1	146	0	915.360069816196	915.460079581314	0.100009765118557	stim10_sf2_pattern1_cont2_shape1.png	2	1	2	1	1	4	0	0	0	0	0	0	0	0	0	0	0	0	1	5
703.36669921875	0.0999997947274096	1440495	315	1	stim01_sf1_pattern1_cont1_shape2.png	1	147	0	915.860073481781	915.960073276508	0.0999997947274096	stim01_sf1_pattern1_cont1_shape2.png	1	1	1	2	1	1	0	0	0	0	0	0	0	0	0	0	0	0	1	5
703.86669921875	0.100005952909669	1441519	316	0	stim00_sf1_pattern1_cont1_shape1.png	1	148	0	916.360048995674	916.460054948584	0.100005952909669	stim00_sf1_pattern1_cont1_shape1.png	1	1	1	1	1	1	0	0	0	0	0	0	0	0	0	0	0	0	1	5
704.36669921875	0.0999980352471539	1442543	317	14	stim14_sf2_pattern2_cont2_shape1.png	1	149	0	916.860058526194	916.960056561441	0.0999980352471539	stim14_sf2_pattern2_cont2_shape1.png	2	2	2	1	1	4	0	0	0	0	0	0	0	0	0	0	0	0	1	5
704.86669921875	0.100007419143367	1443567	318	13	stim13_sf2_pattern2_cont1_shape2.png	1	150	0	917.360035213075	917.460042632218	0.100007419143367	stim13_sf2_pattern2_cont1_shape2.png	2	2	1	2	1	3	0	0	0	0	0	0	0	0	0	0	0	0	1	5
705.36669921875	0.0999977419996867	1444591	319	12	stim12_sf2_pattern2_cont1_shape1.png	1	151	0	917.860042690867	917.960040432867	0.0999977419996867	stim12_sf2_pattern2_cont1_shape1.png	2	2	1	1	1	3	0	0	0	0	0	0	0	0	0	0	0	0	1	5
705.86669921875	0.100010351611672	1445615	320	7	stim07_sf1_pattern2_cont2_shape2.png	1	152	0	918.360014685799	918.460025037411	0.100010351611672	stim07_sf1_pattern2_cont2_shape2.png	1	2	2	2	1	2	0	0	0	0	0	0	0	0	0	0	0	0	1	5
706.36669921875	0.0999971555056618	1446639	321	6	stim06_sf1_pattern2_cont2_shape1.png	1	153	0	918.860007501253	918.960004656759	0.0999971555056618	stim06_sf1_pattern2_cont2_shape1.png	1	2	2	1	1	2	0	0	0	0	0	0	0	0	0	0	0	0	1	5
706.86669921875	0.0999816134262801	1447663	322	8	stim08_sf2_pattern1_cont1_shape1.png	1	154	0	919.360005301902	919.459986915328	0.0999816134262801	stim08_sf2_pattern1_cont1_shape1.png	2	1	1	1	1	3	0	0	0	0	0	0	0	0	0	0	0	0	1	5
707.36669921875	0.0999965690125464	1448687	323	10	stim10_sf2_pattern1_cont2_shape1.png	1	155	0	919.859995184888	919.9599917539	0.0999965690125464	stim10_sf2_pattern1_cont2_shape1.png	2	1	2	1	1	4	0	0	0	0	0	0	0	0	0	0	0	0	1	5
707.86669921875	0.100006246157136	1449711	324	3	stim03_sf1_pattern1_cont2_shape2.png	1	156	0	920.359949585012	920.459955831169	0.100006246157136	stim03_sf1_pattern1_cont2_shape2.png	1	1	2	2	1	2	0	0	0	0	0	0	0	0	0	0	0	0	1	5
708.36669921875	0.0999962757659887	1450735	325	15	stim15_sf2_pattern2_cont2_shape2.png	1	157	0	920.859951784363	920.959948060129	0.0999962757659887	stim15_sf2_pattern2_cont2_shape2.png	2	2	2	2	1	4	0	0	0	0	0	0	0	0	0	0	0	0	1	5
708.86669921875	0.0999980352462444	1451759	326	5	stim05_sf1_pattern2_cont1_shape2.png	1	158	0	921.359935215919	921.459933251166	0.0999980352462444	stim05_sf1_pattern2_cont1_shape2.png	1	2	1	2	1	1	0	0	0	0	0	0	0	0	0	0	0	0	1	5
709.36669921875	0.0999977419996867	1452783	327	1	stim01_sf1_pattern1_cont1_shape2.png	1	159	0	921.859937122023	921.959934864023	0.0999977419996867	stim01_sf1_pattern1_cont1_shape2.png	1	1	1	2	1	1	0	0	0	0	0	0	0	0	0	0	0	0	1	5
709.86669921875	0.100007125896809	1453807	328	4	stim04_sf1_pattern2_cont1_shape1.png	1	160	0	922.359932869945	922.459939995842	0.100007125896809	stim04_sf1_pattern2_cont1_shape1.png	1	2	1	1	1	1	0	0	0	0	0	0	0	0	0	0	0	0	1	5
710.36669921875	0.0999918770639852	1454831	329	11	stim11_sf2_pattern1_cont2_shape2.png	1	161	0	922.85995383709	922.959945714154	0.0999918770639852	stim11_sf2_pattern1_cont2_shape2.png	2	1	2	2	1	4	0	0	0	0	0	0	0	0	0	0	0	0	1	5
710.86669921875	0.100004486675971	1455855	330	9	stim09_sf2_pattern1_cont1_shape2.png	1	162	0	923.359936682153	923.459941168829	0.100004486675971	stim09_sf2_pattern1_cont1_shape2.png	2	1	1	2	1	3	0	0	0	0	0	0	0	0	0	0	0	0	1	5
711.36669921875	0.100012697585953	1456879	331	2	stim02_sf1_pattern1_cont2_shape1.png	1	163	0	923.859924219164	923.95993691675	0.100012697585953	stim02_sf1_pattern1_cont2_shape1.png	1	1	2	1	1	2	0	0	0	0	0	0	0	0	0	0	0	0	1	5
733.9990234375	0.100001260961108	1503230	332	12	stim12_sf2_pattern2_cont1_shape1.png	2	0	0	946.49292703404	946.592928295001	0.100001260961108	stim12_sf2_pattern2_cont1_shape1.png	2	2	1	1	1	3	0	0	0	0	0	0	0	0	0	0	0	0	1	5
734.4990234375	0.100001260961108	1504254	333	2	stim02_sf1_pattern1_cont2_shape1.png	2	1	0	946.992898442478	947.092899703439	0.100001260961108	stim02_sf1_pattern1_cont2_shape1.png	1	1	2	1	1	2	0	0	0	0	0	0	0	0	0	0	0	0	1	5
734.9990234375	0.0999983284928021	1505278	334	1	stim01_sf1_pattern1_cont1_shape2.png	2	2	0	947.492915010922	947.592913339415	0.0999983284928021	stim01_sf1_pattern1_cont1_shape2.png	1	1	1	2	1	1	0	0	0	0	0	0	0	0	0	0	0	0	1	5
735.4990234375	0.0999965690125464	1506302	335	7	stim07_sf1_pattern2_cont2_shape2.png	2	3	0	947.992904893908	948.092901462921	0.0999965690125464	stim07_sf1_pattern2_cont2_shape2.png	1	2	2	2	1	2	0	0	0	0	0	0	0	0	0	0	0	0	1	5
735.9990234375	0.0999505292666072	1507326	336	6	stim06_sf1_pattern2_cont2_shape1.png	2	4	0	948.492892137673	948.592842666939	0.0999505292666072	stim06_sf1_pattern2_cont2_shape1.png	1	2	2	1	1	2	0	0	0	0	0	0	0	0	0	0	0	0	1	5
736.4990234375	0.100021494989051	1508350	337	14	stim14_sf2_pattern2_cont2_shape1.png	2	5	0	948.992865598838	949.092887093827	0.100021494989051	stim14_sf2_pattern2_cont2_shape1.png	2	2	2	1	1	4	0	0	0	0	0	0	0	0	0	0	0	0	1	5
736.9990234375	0.0999992082342942	1509374	338	8	stim08_sf2_pattern1_cont1_shape1.png	2	6	0	949.492873369878	949.592872578112	0.0999992082342942	stim08_sf2_pattern1_cont1_shape1.png	2	1	1	1	1	3	0	0	0	0	0	0	0	0	0	0	0	0	1	5
737.4990234375	0.0999951027788484	1510398	339	3	stim03_sf1_pattern1_cont2_shape2.png	2	7	0	949.992874102995	950.092869205774	0.0999951027788484	stim03_sf1_pattern1_cont2_shape2.png	1	1	2	2	1	2	0	0	0	0	0	0	0	0	0	0	0	0	1	5
737.9990234375	0.099998914986827	1511422	340	15	stim15_sf2_pattern2_cont2_shape2.png	2	8	0	950.492860467019	950.592859382006	0.099998914986827	stim15_sf2_pattern2_cont2_shape2.png	2	2	2	2	1	4	0	0	0	0	0	0	0	0	0	0	0	0	1	5
738.4990234375	0.0999992082342942	1512446	341	5	stim05_sf1_pattern2_cont1_shape2.png	2	9	0	950.992855041953	951.092854250187	0.0999992082342942	stim05_sf1_pattern2_cont1_shape2.png	1	2	1	2	1	1	0	0	0	0	0	0	0	0	0	0	0	0	1	5
738.9990234375	0.0999898243371717	1513470	342	13	stim13_sf2_pattern2_cont1_shape2.png	2	10	0	951.492855188576	951.592845012914	0.0999898243371717	stim13_sf2_pattern2_cont1_shape2.png	2	2	1	2	1	3	0	0	0	0	0	0	0	0	0	0	0	0	1	5
739.4990234375	0.100000674467083	1514494	343	11	stim11_sf2_pattern1_cont2_shape2.png	2	11	0	951.992839206627	952.092839881094	0.100000674467083	stim11_sf2_pattern1_cont2_shape2.png	2	1	2	2	1	4	0	0	0	0	0	0	0	0	0	0	0	0	1	5
739.9990234375	0.0999977419996867	1515518	344	0	stim00_sf1_pattern1_cont1_shape1.png	2	12	0	952.492832608574	952.592830350574	0.0999977419996867	stim00_sf1_pattern1_cont1_shape1.png	1	1	1	1	1	1	0	0	0	0	0	0	0	0	0	0	0	0	1	5
740.4990234375	0.0999953960254061	1516542	345	4	stim04_sf1_pattern2_cont1_shape1.png	2	13	0	952.992827183508	953.092822579534	0.0999953960254061	stim04_sf1_pattern2_cont1_shape1.png	1	2	1	1	1	1	0	0	0	0	0	0	0	0	0	0	0	0	1	5
740.9990234375	0.100019149015679	1517566	346	10	stim10_sf2_pattern1_cont2_shape1.png	2	14	0	953.492798885193	953.592818034208	0.100019149015679	stim10_sf2_pattern1_cont2_shape1.png	2	1	2	1	1	4	0	0	0	0	0	0	0	0	0	0	0	0	1	5
741.4990234375	0.100010058365115	1518590	347	9	stim09_sf2_pattern1_cont1_shape2.png	2	15	0	953.992808122467	954.092818180832	0.100010058365115	stim09_sf2_pattern1_cont1_shape2.png	2	1	1	2	1	3	0	0	0	0	0	0	0	0	0	0	0	0	1	5
741.9990234375	0.100037916809924	1519614	348	6	stim06_sf1_pattern2_cont2_shape1.png	2	16	0	954.492754018434	954.592791935244	0.100037916809924	stim06_sf1_pattern2_cont2_shape1.png	1	2	2	1	1	2	0	0	0	0	0	0	0	0	0	0	0	0	1	5
742.4990234375	0.0999883581025642	1520638	349	5	stim05_sf1_pattern2_cont1_shape2.png	2	17	0	954.992764428695	955.092752786798	0.0999883581025642	stim05_sf1_pattern2_cont1_shape2.png	1	2	1	2	1	1	0	0	0	0	0	0	0	0	0	0	0	0	1	5
742.9990234375	0.0999939297917081	1521662	350	0	stim00_sf1_pattern1_cont1_shape1.png	2	18	0	955.492750206226	955.592744136018	0.0999939297917081	stim00_sf1_pattern1_cont1_shape1.png	1	1	1	1	1	1	0	0	0	0	0	0	0	0	0	0	0	0	1	5
743.4990234375	0.0999971555065713	1522686	351	7	stim07_sf1_pattern2_cont2_shape2.png	2	19	0	955.992733637782	956.092730793288	0.0999971555065713	stim07_sf1_pattern2_cont2_shape2.png	1	2	2	2	1	2	0	0	0	0	0	0	0	0	0	0	0	0	1	5
743.9990234375	0.0999992082342942	1523710	352	3	stim03_sf1_pattern1_cont2_shape2.png	2	20	0	956.492723227521	956.592722435755	0.0999992082342942	stim03_sf1_pattern1_cont2_shape2.png	1	1	2	2	1	2	0	0	0	0	0	0	0	0	0	0	0	0	1	5
744.4990234375	0.0999877716094488	1524734	353	10	stim10_sf2_pattern1_cont2_shape1.png	2	21	0	956.992727772846	957.092715544456	0.0999877716094488	stim10_sf2_pattern1_cont2_shape1.png	2	1	2	1	1	4	0	0	0	0	0	0	0	0	0	0	0	0	1	5
744.9990234375	0.100006539403694	1525758	354	1	stim01_sf1_pattern1_cont1_shape2.png	2	22	0	957.492703873233	957.592710412636	0.100006539403694	stim01_sf1_pattern1_cont1_shape2.png	1	1	1	2	1	1	0	0	0	0	0	0	0	0	0	0	0	0	1	5
745.4990234375	0.0999968622591041	1526782	355	2	stim02_sf1_pattern1_cont2_shape1.png	2	23	0	957.992730998561	958.09272786082	0.0999968622591041	stim02_sf1_pattern1_cont2_shape1.png	1	1	2	1	1	2	0	0	0	0	0	0	0	0	0	0	0	0	1	5
745.9990234375	0.0999948095322907	1527806	356	15	stim15_sf2_pattern2_cont2_shape2.png	2	24	0	958.492724107261	958.592718916794	0.0999948095322907	stim15_sf2_pattern2_cont2_shape2.png	2	2	2	2	1	4	0	0	0	0	0	0	0	0	0	0	0	0	1	5
746.4990234375	0.100001260961108	1528830	357	12	stim12_sf2_pattern2_cont1_shape1.png	2	25	0	958.992716922715	959.092718183676	0.100001260961108	stim12_sf2_pattern2_cont1_shape1.png	2	2	1	1	1	3	0	0	0	0	0	0	0	0	0	0	0	0	1	5
746.9990234375	0.10001299083342	1529854	358	11	stim11_sf2_pattern1_cont2_shape2.png	2	26	0	959.492703579986	959.592716570819	0.10001299083342	stim11_sf2_pattern1_cont2_shape2.png	2	1	2	2	1	4	0	0	0	0	0	0	0	0	0	0	0	0	1	5
747.4990234375	0.100002727195715	1530878	359	4	stim04_sf1_pattern2_cont1_shape1.png	2	27	0	959.992723080898	960.092725808093	0.100002727195715	stim04_sf1_pattern2_cont1_shape1.png	1	2	1	1	1	1	0	0	0	0	0	0	0	0	0	0	0	0	1	5
747.9990234375	0.100007125896809	1531902	360	13	stim13_sf2_pattern2_cont1_shape2.png	2	28	0	960.492709151675	960.592716277572	0.100007125896809	stim13_sf2_pattern2_cont1_shape2.png	2	2	1	2	1	3	0	0	0	0	0	0	0	0	0	0	0	0	1	5
748.4990234375	0.0999956892719638	1532926	361	9	stim09_sf2_pattern1_cont1_shape2.png	2	29	0	960.992699327908	961.09269501718	0.0999956892719638	stim09_sf2_pattern1_cont1_shape2.png	2	1	1	2	1	3	0	0	0	0	0	0	0	0	0	0	0	0	1	5
748.9990234375	0.100007125896809	1533950	362	8	stim08_sf2_pattern1_cont1_shape1.png	2	30	0	961.492682172971	961.592689298868	0.100007125896809	stim08_sf2_pattern1_cont1_shape1.png	2	1	1	1	1	3	0	0	0	0	0	0	0	0	0	0	0	0	1	5
749.4990234375	0.0999830796599781	1534974	363	5	stim05_sf1_pattern2_cont1_shape2.png	2	31	1	961.992695515699	962.092678595359	0.0999830796599781	stim05_sf1_pattern2_cont1_shape2.png	1	2	1	2	1	1	0	0	0	0	0	0	0	0	0	0	0	0	1	5
749.99853515625	0.100019149015679	1535997	364	5	stim05_sf1_pattern2_cont1_shape2.png	2	32	1	962.492675721541	962.592694870557	0.100019149015679	stim05_sf1_pattern2_cont1_shape2.png	1	2	1	2	1	1	0	0	0	0	0	0	0	0	0	0	0	0	1	5
750.49853515625	0.0999962757659887	1537021	365	1	stim01_sf1_pattern1_cont1_shape2.png	2	33	2	962.992670003229	963.092666278995	0.0999962757659887	stim01_sf1_pattern1_cont1_shape2.png	1	1	1	2	1	1	0	0	0	0	0	0	0	0	0	0	0	0	1	5
750.99853515625	0.0999986217402693	1538045	366	9	stim09_sf2_pattern1_cont1_shape2.png	2	34	2	963.492661352448	963.592659974188	0.0999986217402693	stim09_sf2_pattern1_cont1_shape2.png	2	1	1	2	1	3	0	0	0	0	0	0	0	0	0	0	0	0	1	5
751.49853515625	0.0999962757650792	1539069	367	14	stim14_sf2_pattern2_cont2_shape1.png	2	35	0	963.992653581409	964.092649857174	0.0999962757650792	stim14_sf2_pattern2_cont2_shape1.png	2	2	2	1	1	4	0	0	0	0	0	0	0	0	0	0	0	0	1	5
751.99853515625	0.100008885377974	1540093	368	6	stim06_sf1_pattern2_cont2_shape1.png	2	36	0	964.492637012965	964.592645898343	0.100008885377974	stim06_sf1_pattern2_cont2_shape1.png	1	2	2	1	1	2	0	0	0	0	0	0	0	0	0	0	0	0	1	5
752.49853515625	0.0999918770639852	1541117	369	15	stim15_sf2_pattern2_cont2_shape2.png	2	37	0	964.992643611018	965.092635488082	0.0999918770639852	stim15_sf2_pattern2_cont2_shape2.png	2	2	2	2	1	4	0	0	0	0	0	0	0	0	0	0	0	0	1	5
752.99853515625	0.0999760417371363	1542141	370	11	stim11_sf2_pattern1_cont2_shape2.png	2	38	0	965.49262557634	965.592601618077	0.0999760417371363	stim11_sf2_pattern1_cont2_shape2.png	2	1	2	2	1	4	0	0	0	0	0	0	0	0	0	0	0	0	1	5
753.49853515625	0.0999951027788484	1543165	371	13	stim13_sf2_pattern2_cont1_shape2.png	2	39	0	965.992625722963	966.092620825742	0.0999951027788484	stim13_sf2_pattern2_cont1_shape2.png	2	2	1	2	1	3	0	0	0	0	0	0	0	0	0	0	0	0	1	5
753.99853515625	0.100005952909669	1544189	372	9	stim09_sf2_pattern1_cont1_shape2.png	2	40	0	966.492605342312	966.592611295222	0.100005952909669	stim09_sf2_pattern1_cont1_shape2.png	2	1	1	2	1	3	0	0	0	0	0	0	0	0	0	0	0	0	1	5
754.49853515625	0.0999948095313812	1545213	373	12	stim12_sf2_pattern2_cont1_shape1.png	2	41	0	966.992609887637	967.092604697169	0.0999948095313812	stim12_sf2_pattern2_cont1_shape1.png	2	2	1	1	1	3	0	0	0	0	0	0	0	0	0	0	0	0	1	5
754.99853515625	0.100008885377974	1546237	374	3	stim03_sf1_pattern1_cont2_shape2.png	2	42	0	967.492589213738	967.592598099116	0.100008885377974	stim03_sf1_pattern1_cont2_shape2.png	1	1	2	2	1	2	0	0	0	0	0	0	0	0	0	0	0	0	1	5
755.49853515625	0.100056098111054	1547261	375	14	stim14_sf2_pattern2_cont2_shape1.png	2	43	0	967.992536282692	968.092592380803	0.100056098111054	stim14_sf2_pattern2_cont2_shape1.png	2	2	2	1	1	4	0	0	0	0	0	0	0	0	0	0	0	0	1	5
755.99853515625	0.0999877716085393	1548285	376	10	stim10_sf2_pattern1_cont2_shape1.png	2	44	0	968.492603289584	968.592591061193	0.0999877716085393	stim10_sf2_pattern1_cont2_shape1.png	2	1	2	1	1	4	0	0	0	0	0	0	0	0	0	0	0	0	1	5
756.49853515625	0.100010938105697	1549309	377	1	stim01_sf1_pattern1_cont1_shape2.png	2	45	0	968.992557103214	969.09256804132	0.100010938105697	stim01_sf1_pattern1_cont1_shape2.png	1	1	1	2	1	1	0	0	0	0	0	0	0	0	0	0	0	0	1	5
756.99853515625	0.100003313688831	1550333	378	5	stim05_sf1_pattern2_cont1_shape2.png	2	46	0	969.492561648539	969.592564962228	0.100003313688831	stim05_sf1_pattern2_cont1_shape2.png	1	2	1	2	1	1	0	0	0	0	0	0	0	0	0	0	0	0	1	5
757.49853515625	0.100010938104788	1551357	379	8	stim08_sf2_pattern1_cont1_shape1.png	2	47	0	969.992534523212	970.092545461317	0.100010938104788	stim08_sf2_pattern1_cont1_shape1.png	2	1	1	1	1	3	0	0	0	0	0	0	0	0	0	0	0	0	1	5
757.99853515625	0.0999915838174275	1552381	380	2	stim02_sf1_pattern1_cont2_shape1.png	2	48	0	970.492512383079	970.592503966896	0.0999915838174275	stim02_sf1_pattern1_cont2_shape1.png	1	1	2	1	1	2	0	0	0	0	0	0	0	0	0	0	0	0	1	5
758.49853515625	0.0999986217402693	1553405	381	4	stim04_sf1_pattern2_cont1_shape1.png	2	49	0	970.992497280869	971.092495902609	0.0999986217402693	stim04_sf1_pattern2_cont1_shape1.png	1	2	1	1	1	1	0	0	0	0	0	0	0	0	0	0	0	0	1	5
758.99853515625	0.099986598621399	1554429	382	7	stim07_sf1_pattern2_cont2_shape2.png	2	50	0	971.492505638403	971.592492237025	0.099986598621399	stim07_sf1_pattern2_cont2_shape2.png	1	2	2	2	1	2	0	0	0	0	0	0	0	0	0	0	0	0	1	5
759.49853515625	0.0999798539451149	1555453	383	0	stim00_sf1_pattern1_cont1_shape1.png	2	51	0	971.992502559312	972.092482413257	0.0999798539451149	stim00_sf1_pattern1_cont1_shape1.png	1	1	1	1	1	1	0	0	0	0	0	0	0	0	0	0	0	0	1	5
759.99853515625	0.0999778012183015	1556477	384	3	stim03_sf1_pattern1_cont2_shape2.png	2	52	0	972.492497134246	972.592474935464	0.0999778012183015	stim03_sf1_pattern1_cont2_shape2.png	1	1	2	2	1	2	0	0	0	0	0	0	0	0	0	0	0	0	1	5
760.49853515625	0.0999725227757153	1557501	385	0	stim00_sf1_pattern1_cont1_shape1.png	2	53	0	972.992488776712	973.092461299488	0.0999725227757153	stim00_sf1_pattern1_cont1_shape1.png	1	1	1	1	1	1	0	0	0	0	0	0	0	0	0	0	0	0	1	5
760.99853515625	0.100007125897719	1558525	386	5	stim05_sf1_pattern2_cont1_shape2.png	2	54	0	973.492481298919	973.592488424817	0.100007125897719	stim05_sf1_pattern2_cont1_shape2.png	1	2	1	2	1	1	0	0	0	0	0	0	0	0	0	0	0	0	1	5
761.49853515625	0.0999909973234026	1559549	387	12	stim12_sf2_pattern2_cont1_shape1.png	2	55	0	973.99248437801	974.092475375334	0.0999909973234026	stim12_sf2_pattern2_cont1_shape1.png	2	2	1	1	1	3	0	0	0	0	0	0	0	0	0	0	0	0	1	5
761.99853515625	0.0999939297917081	1560573	388	9	stim09_sf2_pattern1_cont1_shape2.png	2	56	0	974.492468102814	974.592462032605	0.0999939297917081	stim09_sf2_pattern1_cont1_shape2.png	2	1	1	2	1	3	0	0	0	0	0	0	0	0	0	0	0	0	1	5
762.49853515625	0.100027359925662	1561597	389	6	stim06_sf1_pattern2_cont2_shape1.png	2	57	0	974.99246062502	975.092487984946	0.100027359925662	stim06_sf1_pattern2_cont2_shape1.png	1	2	2	1	1	2	0	0	0	0	0	0	0	0	0	0	0	0	1	5
762.99853515625	0.100003020442273	1562621	390	13	stim13_sf2_pattern2_cont1_shape2.png	2	58	0	975.49247660697	975.592479627413	0.100003020442273	stim13_sf2_pattern2_cont1_shape2.png	2	2	1	2	1	3	0	0	0	0	0	0	0	0	0	0	0	0	1	5
763.49853515625	0.100023254470216	1563645	391	1	stim01_sf1_pattern1_cont1_shape2.png	2	59	0	975.992439218005	976.092462472475	0.100023254470216	stim01_sf1_pattern1_cont1_shape2.png	1	1	1	2	1	1	0	0	0	0	0	0	0	0	0	0	0	0	1	5
763.99853515625	0.0999992082342942	1564669	392	8	stim08_sf2_pattern1_cont1_shape1.png	2	60	0	976.492425288782	976.592424497016	0.0999992082342942	stim08_sf2_pattern1_cont1_shape1.png	2	1	1	1	1	3	0	0	0	0	0	0	0	0	0	0	0	0	1	5
764.49853515625	0.100001847454223	1565693	393	2	stim02_sf1_pattern1_cont2_shape1.png	2	61	0	976.992450947876	977.092452795331	0.100001847454223	stim02_sf1_pattern1_cont2_shape1.png	1	1	2	1	1	2	0	0	0	0	0	0	0	0	0	0	0	0	1	5
764.99853515625	0.100005952909669	1566717	394	15	stim15_sf2_pattern2_cont2_shape2.png	2	62	0	977.492432913199	977.592438866108	0.100005952909669	stim15_sf2_pattern2_cont2_shape2.png	2	2	2	2	1	4	0	0	0	0	0	0	0	0	0	0	0	0	1	5
765.49853515625	0.0999956892719638	1567741	395	14	stim14_sf2_pattern2_cont2_shape1.png	2	63	0	977.992433939562	978.092429628834	0.0999956892719638	stim14_sf2_pattern2_cont2_shape1.png	2	2	2	1	1	4	0	0	0	0	0	0	0	0	0	0	0	0	1	5
765.99853515625	0.0999863053748413	1568765	396	10	stim10_sf2_pattern1_cont2_shape1.png	2	64	0	978.492417077872	978.592403383247	0.0999863053748413	stim10_sf2_pattern1_cont2_shape1.png	2	1	2	1	1	4	0	0	0	0	0	0	0	0	0	0	0	0	1	5
766.49853515625	0.100002727195715	1569789	397	4	stim04_sf1_pattern2_cont1_shape1.png	2	65	0	978.992413412287	979.092416139483	0.100002727195715	stim04_sf1_pattern2_cont1_shape1.png	1	2	1	1	1	1	0	0	0	0	0	0	0	0	0	0	0	0	1	5
766.99853515625	0.0999704700479924	1570813	398	7	stim07_sf1_pattern2_cont2_shape2.png	2	66	0	979.492400362805	979.592370832853	0.0999704700479924	stim07_sf1_pattern2_cont2_shape2.png	1	2	2	2	1	2	0	0	0	0	0	0	0	0	0	0	0	0	1	5
767.498046875	0.0999936365442409	1571836	399	11	stim11_sf2_pattern1_cont2_shape2.png	2	67	0	979.992406374364	980.092400010908	0.0999936365442409	stim11_sf2_pattern1_cont2_shape2.png	2	1	2	2	1	4	0	0	0	0	0	0	0	0	0	0	0	0	1	5
767.998046875	0.10001416382056	1572860	400	6	stim06_sf1_pattern2_cont2_shape1.png	2	68	0	980.492379249036	980.592393412856	0.10001416382056	stim06_sf1_pattern2_cont2_shape1.png	1	2	2	1	1	2	0	0	0	0	0	0	0	0	0	0	0	0	1	5
768.498046875	0.0999877716085393	1573884	401	9	stim09_sf2_pattern1_cont1_shape2.png	2	69	0	980.99239581748	981.092383589089	0.0999877716085393	stim09_sf2_pattern1_cont1_shape2.png	2	1	1	2	1	3	0	0	0	0	0	0	0	0	0	0	0	0	1	5
768.998046875	0.100005659663111	1574908	402	4	stim04_sf1_pattern2_cont1_shape1.png	2	70	0	981.492368692152	981.592374351815	0.100005659663111	stim04_sf1_pattern2_cont1_shape1.png	1	2	1	1	1	1	0	0	0	0	0	0	0	0	0	0	0	0	1	5
769.498046875	0.0999915838174275	1575932	403	13	stim13_sf2_pattern2_cont1_shape2.png	2	71	0	981.992376463192	982.092368047009	0.0999915838174275	stim13_sf2_pattern2_cont1_shape2.png	2	2	1	2	1	3	0	0	0	0	0	0	0	0	0	0	0	0	1	5
769.998046875	0.100006539402784	1576956	404	7	stim07_sf1_pattern2_cont2_shape2.png	2	72	0	982.492350804098	982.592357343501	0.100006539402784	stim07_sf1_pattern2_cont2_shape2.png	1	2	2	2	1	2	0	0	0	0	0	0	0	0	0	0	0	0	1	5
770.498046875	0.0999995014799424	1577980	405	11	stim11_sf2_pattern1_cont2_shape2.png	2	73	0	982.992354469683	983.092353971163	0.0999995014799424	stim11_sf2_pattern1_cont2_shape2.png	2	1	2	2	1	4	0	0	0	0	0	0	0	0	0	0	0	0	1	5
770.998046875	0.100002727194806	1579004	406	14	stim14_sf2_pattern2_cont2_shape1.png	2	74	0	983.492341713447	983.592344440642	0.100002727194806	stim14_sf2_pattern2_cont2_shape1.png	2	2	2	1	1	4	0	0	0	0	0	0	0	0	0	0	0	0	1	5
771.498046875	0.0999695903074098	1580028	407	2	stim02_sf1_pattern1_cont2_shape1.png	2	75	0	983.992343326304	984.092312916612	0.0999695903074098	stim02_sf1_pattern1_cont2_shape1.png	1	1	2	1	1	2	0	0	0	0	0	0	0	0	0	0	0	0	1	5
771.998046875	0.0999813201788129	1581052	408	3	stim03_sf1_pattern1_cont2_shape2.png	2	76	0	984.492324411887	984.592305732066	0.0999813201788129	stim03_sf1_pattern1_cont2_shape2.png	1	1	2	2	1	2	0	0	0	0	0	0	0	0	0	0	0	0	1	5
772.498046875	0.0999971555056618	1582076	409	15	stim15_sf2_pattern2_cont2_shape2.png	2	77	0	984.99230080552	985.092297961025	0.0999971555056618	stim15_sf2_pattern2_cont2_shape2.png	2	2	2	2	1	4	0	0	0	0	0	0	0	0	0	0	0	0	1	5
772.998046875	0.0999907040768448	1583100	410	0	stim00_sf1_pattern1_cont1_shape1.png	2	78	0	985.492291568246	985.592282272323	0.0999907040768448	stim00_sf1_pattern1_cont1_shape1.png	1	1	1	1	1	1	0	0	0	0	0	0	0	0	0	0	0	0	1	5
773.498046875	0.10001064485823	1584124	411	12	stim12_sf2_pattern2_cont1_shape1.png	2	79	0	985.992266495645	986.092277140503	0.10001064485823	stim12_sf2_pattern2_cont1_shape1.png	2	2	1	1	1	3	0	0	0	0	0	0	0	0	0	0	0	0	1	5
773.998046875	0.100003020441363	1585148	412	8	stim08_sf2_pattern1_cont1_shape1.png	2	80	0	986.492251100189	986.592254120631	0.100003020441363	stim08_sf2_pattern1_cont1_shape1.png	2	1	1	1	1	3	0	0	0	0	0	0	0	0	0	0	0	0	1	5
774.498046875	0.100016803041399	1586172	413	10	stim10_sf2_pattern1_cont2_shape1.png	2	81	0	986.992250660318	987.09226746336	0.100016803041399	stim10_sf2_pattern1_cont2_shape1.png	2	1	2	1	1	4	0	0	0	0	0	0	0	0	0	0	0	0	1	5
774.998046875	0.1000299991465	1587196	414	1	stim01_sf1_pattern1_cont1_shape2.png	2	82	0	987.492237024343	987.592267023489	0.1000299991465	stim01_sf1_pattern1_cont1_shape2.png	1	1	1	2	1	1	0	0	0	0	0	0	0	0	0	0	0	0	1	5
775.498046875	0.100001260961108	1588220	415	5	stim05_sf1_pattern2_cont1_shape2.png	2	83	0	987.992231892524	988.092233153485	0.100001260961108	stim05_sf1_pattern2_cont1_shape2.png	1	2	1	2	1	1	0	0	0	0	0	0	0	0	0	0	0	0	1	5
775.998046875	0.0999871851154239	1589244	416	15	stim15_sf2_pattern2_cont2_shape2.png	2	84	0	988.492258724605	988.592245909721	0.0999871851154239	stim15_sf2_pattern2_cont2_shape2.png	2	2	2	2	1	4	0	0	0	0	0	0	0	0	0	0	0	0	1	5
776.498046875	0.099991583816518	1590268	417	0	stim00_sf1_pattern1_cont1_shape1.png	2	85	0	988.992250073825	989.092241657642	0.099991583816518	stim00_sf1_pattern1_cont1_shape1.png	1	1	1	1	1	1	0	0	0	0	0	0	0	0	0	0	0	0	1	5
776.998046875	0.100007125896809	1591292	418	11	stim11_sf2_pattern1_cont2_shape2.png	2	86	0	989.492236731096	989.592243856993	0.100007125896809	stim11_sf2_pattern1_cont2_shape2.png	2	1	2	2	1	4	0	0	0	0	0	0	0	0	0	0	0	0	1	5
777.498046875	0.100003900181946	1592316	419	6	stim06_sf1_pattern2_cont2_shape1.png	2	87	0	989.992235411486	990.092239311668	0.100003900181946	stim06_sf1_pattern2_cont2_shape1.png	1	2	2	1	1	2	0	0	0	0	0	0	0	0	0	0	0	0	1	5
777.998046875	0.100011231351345	1593340	420	12	stim12_sf2_pattern2_cont1_shape1.png	2	88	0	990.492238490577	990.592249721929	0.100011231351345	stim12_sf2_pattern2_cont1_shape1.png	2	2	1	1	1	3	0	0	0	0	0	0	0	0	0	0	0	0	1	5
778.498046875	0.100003020442273	1594364	421	1	stim01_sf1_pattern1_cont1_shape2.png	2	89	0	990.992242449408	991.092245469851	0.100003020442273	stim01_sf1_pattern1_cont1_shape2.png	1	1	1	2	1	1	0	0	0	0	0	0	0	0	0	0	0	0	1	5
778.998046875	0.0999505292666072	1595388	422	13	stim13_sf2_pattern2_cont1_shape2.png	2	90	0	991.492220016029	991.592170545295	0.0999505292666072	stim13_sf2_pattern2_cont1_shape2.png	2	2	1	2	1	3	0	0	0	0	0	0	0	0	0	0	0	0	1	5
779.498046875	0.100061083306173	1596412	423	4	stim04_sf1_pattern2_cont1_shape1.png	2	91	0	991.992153888878	992.092214972184	0.100061083306173	stim04_sf1_pattern2_cont1_shape1.png	1	2	1	1	1	1	0	0	0	0	0	0	0	0	0	0	0	0	1	5
779.998046875	0.099977801217392	1597436	424	8	stim08_sf2_pattern1_cont1_shape1.png	2	92	0	992.492188345376	992.592166146593	0.099977801217392	stim08_sf2_pattern1_cont1_shape1.png	2	1	1	1	1	3	0	0	0	0	0	0	0	0	0	0	0	0	1	5
780.498046875	0.0999904108293777	1598460	425	9	stim09_sf2_pattern1_cont1_shape2.png	2	93	0	992.992200808364	993.092191219194	0.0999904108293777	stim09_sf2_pattern1_cont1_shape2.png	2	1	1	2	1	3	0	0	0	0	0	0	0	0	0	0	0	0	1	5
780.998046875	0.100004486675061	1599484	426	3	stim03_sf1_pattern1_cont2_shape2.png	2	94	0	993.492186879142	993.592191365817	0.100004486675061	stim03_sf1_pattern1_cont2_shape2.png	1	1	2	2	1	2	0	0	0	0	0	0	0	0	0	0	0	0	1	5
781.498046875	0.100000381220525	1600508	427	2	stim02_sf1_pattern1_cont2_shape1.png	2	95	0	993.99218380005	994.092184181271	0.100000381220525	stim02_sf1_pattern1_cont2_shape1.png	1	1	2	1	1	2	0	0	0	0	0	0	0	0	0	0	0	0	1	5
781.998046875	0.0999558077091933	1601532	428	5	stim05_sf1_pattern2_cont1_shape2.png	2	96	0	994.492177495244	994.592133302953	0.0999558077091933	stim05_sf1_pattern2_cont1_shape2.png	1	2	1	2	1	1	0	0	0	0	0	0	0	0	0	0	0	0	1	5
782.498046875	0.100001554208575	1602556	429	10	stim10_sf2_pattern1_cont2_shape1.png	2	97	0	994.992165911996	995.092167466205	0.100001554208575	stim10_sf2_pattern1_cont2_shape1.png	2	1	2	1	1	4	0	0	0	0	0	0	0	0	0	0	0	0	1	5
782.998046875	0.0999842526471184	1603580	430	7	stim07_sf1_pattern2_cont2_shape2.png	2	98	0	995.492154035501	995.592138288148	0.0999842526471184	stim07_sf1_pattern2_cont2_shape2.png	1	2	2	2	1	2	0	0	0	0	0	0	0	0	0	0	0	0	1	5
783.498046875	0.0999965690125464	1604604	431	14	stim14_sf2_pattern2_cont2_shape1.png	2	99	0	995.992153595631	996.092150164644	0.0999965690125464	stim14_sf2_pattern2_cont2_shape1.png	2	2	2	1	1	4	0	0	0	0	0	0	0	0	0	0	0	0	1	5
783.998046875	0.100008592131417	1605628	432	15	stim15_sf2_pattern2_cont2_shape2.png	2	100	0	996.492137027187	996.592145619319	0.100008592131417	stim15_sf2_pattern2_cont2_shape2.png	2	2	2	2	1	4	0	0	0	0	0	0	0	0	0	0	0	0	1	5
784.498046875	0.0999965690125464	1606652	433	11	stim11_sf2_pattern1_cont2_shape2.png	2	101	0	996.992138640044	997.092135209057	0.0999965690125464	stim11_sf2_pattern1_cont2_shape2.png	2	1	2	2	1	4	0	0	0	0	0	0	0	0	0	0	0	0	1	5
784.99755859375	0.0999807336856975	1607675	434	3	stim03_sf1_pattern1_cont2_shape2.png	2	102	0	997.492121485108	997.592102218794	0.0999807336856975	stim03_sf1_pattern1_cont2_shape2.png	1	1	2	2	1	2	0	0	0	0	0	0	0	0	0	0	0	0	1	5
785.49755859375	0.0999977419996867	1608699	435	4	stim04_sf1_pattern2_cont1_shape1.png	2	103	0	997.992123977705	998.092121719705	0.0999977419996867	stim04_sf1_pattern2_cont1_shape1.png	1	2	1	1	1	1	0	0	0	0	0	0	0	0	0	0	0	0	1	5
785.99755859375	0.100071346943878	1609723	436	1	stim01_sf1_pattern1_cont1_shape2.png	2	104	0	998.492104476794	998.592175823738	0.100071346943878	stim01_sf1_pattern1_cont1_shape2.png	1	1	1	2	1	1	0	0	0	0	0	0	0	0	0	0	0	0	1	5
786.49755859375	0.100004193429413	1610747	437	2	stim02_sf1_pattern1_cont2_shape1.png	2	105	0	998.992104036923	999.092108230353	0.100004193429413	stim02_sf1_pattern1_cont2_shape1.png	1	1	2	1	1	2	0	0	0	0	0	0	0	0	0	0	0	0	1	5
786.99755859375	0.100000087973967	1611771	438	6	stim06_sf1_pattern2_cont2_shape1.png	2	106	0	999.492087761726	999.5920878497	0.100000087973967	stim06_sf1_pattern2_cont2_shape1.png	1	2	2	1	1	2	0	0	0	0	0	0	0	0	0	0	0	0	1	5
787.49755859375	0.100007712389925	1612795	439	9	stim09_sf2_pattern1_cont1_shape2.png	2	107	0	999.992074712245	1000.09208242463	0.100007712389925	stim09_sf2_pattern1_cont1_shape2.png	2	1	1	2	1	3	0	0	0	0	0	0	0	0	0	0	0	0	1	5
787.99755859375	0.099972816022273	1613819	440	0	stim00_sf1_pattern1_cont1_shape1.png	2	108	0	1000.49206664796	1000.59203946398	0.099972816022273	stim00_sf1_pattern1_cont1_shape1.png	1	1	1	1	1	1	0	0	0	0	0	0	0	0	0	0	0	0	1	5
788.49755859375	0.0999505292666072	1614843	441	5	stim05_sf1_pattern2_cont1_shape2.png	2	109	0	1000.99208526913	1001.0920357984	0.0999505292666072	stim05_sf1_pattern2_cont1_shape2.png	1	2	1	2	1	1	0	0	0	0	0	0	0	0	0	0	0	0	1	5
788.99755859375	0.0999827864134204	1615867	442	7	stim07_sf1_pattern2_cont2_shape2.png	2	110	0	1001.49203937601	1001.59202216242	0.0999827864134204	stim07_sf1_pattern2_cont2_shape2.png	1	2	2	2	1	2	0	0	0	0	0	0	0	0	0	0	0	0	1	5
789.49755859375	0.0999842526480279	1616891	443	12	stim12_sf2_pattern2_cont1_shape1.png	2	111	0	1001.99203189821	1002.09201615086	0.0999842526480279	stim12_sf2_pattern2_cont1_shape1.png	2	2	1	1	1	3	0	0	0	0	0	0	0	0	0	0	0	0	1	5
789.99755859375	0.0999792674519995	1617915	444	14	stim14_sf2_pattern2_cont2_shape1.png	2	112	0	1002.49203233808	1002.59201160554	0.0999792674519995	stim14_sf2_pattern2_cont2_shape1.png	2	2	2	1	1	4	0	0	0	0	0	0	0	0	0	0	0	0	1	5
790.49755859375	0.0999654848528735	1618939	445	10	stim10_sf2_pattern1_cont2_shape1.png	2	113	0	1002.99203395094	1003.09199943579	0.0999654848528735	stim10_sf2_pattern1_cont2_shape1.png	2	1	2	1	1	4	0	0	0	0	0	0	0	0	0	0	0	0	1	5
790.99755859375	0.0999807336856975	1619963	446	8	stim08_sf2_pattern1_cont1_shape1.png	2	114	0	1003.49200008094	1003.59198081462	0.0999807336856975	stim08_sf2_pattern1_cont1_shape1.png	2	1	1	1	1	3	0	0	0	0	0	0	0	0	0	0	0	0	1	5
791.49755859375	0.1000226679771	1620987	447	13	stim13_sf2_pattern2_cont1_shape2.png	2	115	0	1003.99199348288	1004.09201615086	0.1000226679771	stim13_sf2_pattern2_cont1_shape2.png	2	2	1	2	1	3	0	0	0	0	0	0	0	0	0	0	0	0	1	5
791.99755859375	0.100006539402784	1622011	448	7	stim07_sf1_pattern2_cont2_shape2.png	2	116	0	1004.49200946483	1004.59201600424	0.100006539402784	stim07_sf1_pattern2_cont2_shape2.png	1	2	2	2	1	2	0	0	0	0	0	0	0	0	0	0	0	0	1	5
792.49755859375	0.100025600444496	1623035	449	9	stim09_sf2_pattern1_cont1_shape2.png	2	117	0	1004.99199025717	1005.09201585761	0.100025600444496	stim09_sf2_pattern1_cont1_shape2.png	2	1	1	2	1	3	0	0	0	0	0	0	0	0	0	0	0	0	1	5
792.99755859375	0.100025600444496	1624059	450	13	stim13_sf2_pattern2_cont1_shape2.png	2	118	0	1005.49201269055	1005.59203829099	0.100025600444496	stim13_sf2_pattern2_cont1_shape2.png	2	2	1	2	1	3	0	0	0	0	0	0	0	0	0	0	0	0	1	5
