onset	duration	onsetsample	eventnumber	stimnumber	stimname	blocknumber	trialnumber	istarget	time_stimon	time_stimoff	stimdur	stimfilename	spatial_freq	pattern	contrast	shape	is_fast_stream	category	ppt_1_response	ppt_1_keypressed	ppt_1_rt	ppt_1_correct	ppt_2_response	ppt_2_keypressed	ppt_2_rt	ppt_2_correct	button1	button2	button3	button4	task_part_number	subjectnr
74.66552734375	0.0999857188817259	152915	0	4	stim04_sf1_pattern2_cont1_shape1.png	0	0	0	315.944902740302	316.044888459184	0.0999857188817259	stim04_sf1_pattern2_cont1_shape1.png	1	2	1	1	1	3	0	0	0	0	0	0	0	0	0	0	0	0	1	20
75.173828125	0.0999646051132004	153956	1	7	stim07_sf1_pattern2_cont2_shape2.png	0	1	0	316.453219072653	316.553183677766	0.0999646051132004	stim07_sf1_pattern2_cont2_shape2.png	1	2	2	2	1	2	0	0	0	0	0	0	0	0	0	0	0	0	1	20
75.673828125	0.103558637774768	154980	2	12	stim12_sf2_pattern2_cont1_shape1.png	0	2	0	316.974653213676	317.078211851451	0.103558637774768	stim12_sf2_pattern2_cont1_shape1.png	2	2	1	1	1	3	0	0	0	0	0	0	0	0	0	0	0	0	1	20
76.19873046875	0.0999596199180814	156055	3	9	stim09_sf2_pattern1_cont1_shape2.png	0	3	0	317.478204285684	317.578163905602	0.0999596199180814	stim09_sf2_pattern1_cont1_shape2.png	2	1	1	2	1	1	0	0	0	0	0	0	0	0	0	0	0	0	1	20
76.69873046875	0.100000087973967	157079	4	1	stim01_sf1_pattern1_cont1_shape2.png	0	4	0	317.978195928152	318.078196016126	0.100000087973967	stim01_sf1_pattern1_cont1_shape2.png	1	1	1	2	1	1	0	0	0	0	0	0	0	0	0	0	0	0	1	20
77.19873046875	0.0999745755034382	158103	5	8	stim08_sf2_pattern1_cont1_shape1.png	0	5	0	318.478187277371	318.578161852874	0.0999745755034382	stim08_sf2_pattern1_cont1_shape1.png	2	1	1	1	1	3	0	0	0	0	0	0	0	0	0	0	0	0	1	20
77.69873046875	0.099997448753129	159127	6	10	stim10_sf2_pattern1_cont2_shape1.png	0	6	0	318.978180972565	319.078178421318	0.099997448753129	stim10_sf2_pattern1_cont2_shape1.png	2	1	2	1	1	4	0	0	0	0	0	0	0	0	0	0	0	0	1	20
78.19873046875	0.0999349871872255	160151	7	2	stim02_sf1_pattern1_cont2_shape1.png	0	7	0	319.478236542831	319.578171530018	0.0999349871872255	stim02_sf1_pattern1_cont2_shape1.png	1	1	2	1	1	4	0	0	0	0	0	0	0	0	0	0	0	0	1	20
78.69873046875	0.0999845458954951	161175	8	15	stim15_sf2_pattern2_cont2_shape2.png	0	8	0	319.978175107628	320.078159653523	0.0999845458954951	stim15_sf2_pattern2_cont2_shape2.png	2	2	2	2	1	2	0	0	0	0	0	0	0	0	0	0	0	0	1	20
79.19873046875	0.100000674467083	162199	9	5	stim05_sf1_pattern2_cont1_shape2.png	0	9	0	320.478151208015	320.578151882482	0.100000674467083	stim05_sf1_pattern2_cont1_shape2.png	1	2	1	2	1	1	0	0	0	0	0	0	0	0	0	0	0	0	1	20
79.69873046875	0.0999599131628202	163223	10	6	stim06_sf1_pattern2_cont2_shape1.png	0	10	0	320.978148422171	321.078108335334	0.0999599131628202	stim06_sf1_pattern2_cont2_shape1.png	1	2	2	1	1	4	0	0	0	0	0	0	0	0	0	0	0	0	1	20
80.19873046875	0.100010058364205	164247	11	14	stim14_sf2_pattern2_cont2_shape1.png	0	11	0	321.478134199702	321.578144258066	0.100010058364205	stim14_sf2_pattern2_cont2_shape1.png	2	2	2	1	1	4	0	0	0	0	0	0	0	0	0	0	0	0	1	20
80.69873046875	0.0999789742054418	165271	12	11	stim11_sf2_pattern1_cont2_shape2.png	0	12	0	321.978128481389	322.078107455594	0.0999789742054418	stim11_sf2_pattern1_cont2_shape2.png	2	1	2	2	1	2	0	0	0	0	0	0	0	0	0	0	0	0	1	20
81.20703125	0.0999637253717083	166312	13	3	stim03_sf1_pattern1_cont2_shape2.png	0	13	0	322.486458596339	322.58642232171	0.0999637253717083	stim03_sf1_pattern1_cont2_shape2.png	1	1	2	2	1	2	0	0	0	0	0	0	0	0	0	0	0	0	1	20
81.70703125	0.099989531088795	167336	14	13	stim13_sf2_pattern2_cont1_shape2.png	0	14	0	322.986455810495	323.086445341583	0.099989531088795	stim13_sf2_pattern2_cont1_shape2.png	2	2	1	2	1	1	0	0	0	0	0	0	0	0	0	0	0	0	1	20
82.20703125	0.0999569806954241	168360	15	0	stim00_sf1_pattern1_cont1_shape1.png	0	15	0	323.486438069063	323.586395049759	0.0999569806954241	stim00_sf1_pattern1_cont1_shape1.png	1	1	1	1	1	3	0	0	0	0	0	0	0	0	0	0	0	0	1	20
82.70703125	0.099994516285733	169384	16	9	stim09_sf2_pattern1_cont1_shape2.png	0	16	0	323.986435283219	324.086429799505	0.099994516285733	stim09_sf2_pattern1_cont1_shape2.png	2	1	1	2	1	1	0	0	0	0	0	0	0	0	0	0	0	0	1	20
83.20703125	0.0999968622600136	170408	17	6	stim06_sf1_pattern2_cont2_shape1.png	0	17	0	324.486424872957	324.586421735217	0.0999968622600136	stim06_sf1_pattern2_cont2_shape1.png	1	2	2	1	1	4	0	0	0	0	0	0	0	0	0	0	0	0	1	20
83.70703125	0.0999904108302871	171432	18	11	stim11_sf2_pattern1_cont2_shape2.png	0	18	0	324.986423846594	325.086414257425	0.0999904108302871	stim11_sf2_pattern1_cont2_shape2.png	2	1	2	2	1	2	0	0	0	0	0	0	0	0	0	0	0	0	1	20
84.20703125	0.0999983284946211	172456	19	1	stim01_sf1_pattern1_cont1_shape2.png	0	19	0	325.486406691656	325.586405020151	0.0999983284946211	stim01_sf1_pattern1_cont1_shape2.png	1	1	1	2	1	1	0	0	0	0	0	0	0	0	0	0	0	0	1	20
84.70703125	0.10000214070169	173480	20	7	stim07_sf1_pattern2_cont2_shape2.png	0	20	0	325.98639950711	326.086401647812	0.10000214070169	stim07_sf1_pattern2_cont2_shape2.png	1	2	2	2	1	2	0	0	0	0	0	0	0	0	0	0	0	0	1	20
85.20703125	0.0999989149859175	174504	21	15	stim15_sf2_pattern2_cont2_shape2.png	0	21	0	326.486375607497	326.586374522483	0.0999989149859175	stim15_sf2_pattern2_cont2_shape2.png	2	2	2	2	1	2	0	0	0	0	0	0	0	0	0	0	0	0	1	20
85.70703125	0.0999517022537475	175528	22	8	stim08_sf2_pattern1_cont1_shape1.png	0	22	0	326.986391296201	327.086342998455	0.0999517022537475	stim08_sf2_pattern1_cont1_shape1.png	2	1	1	1	1	3	0	0	0	0	0	0	0	0	0	0	0	0	1	20
86.20703125	0.0999962757650792	176552	23	4	stim04_sf1_pattern2_cont1_shape1.png	0	23	0	327.486332206972	327.586328482737	0.0999962757650792	stim04_sf1_pattern2_cont1_shape1.png	1	2	1	1	1	3	0	0	0	0	0	0	0	0	0	0	0	0	1	20
86.70703125	0.100020615249377	177576	24	3	stim03_sf1_pattern1_cont2_shape2.png	0	24	0	327.986309480346	328.086330095595	0.100020615249377	stim03_sf1_pattern1_cont2_shape2.png	1	1	2	2	1	2	0	0	0	0	0	0	0	0	0	0	0	0	1	20
87.20703125	0.0999851323886105	178600	25	0	stim00_sf1_pattern1_cont1_shape1.png	0	25	0	328.486325755543	328.586310887931	0.0999851323886105	stim00_sf1_pattern1_cont1_shape1.png	1	1	1	1	1	3	0	0	0	0	0	0	0	0	0	0	0	0	1	20
87.70703125	0.100000674467083	179624	26	14	stim14_sf2_pattern2_cont2_shape1.png	0	26	0	328.986304201904	329.086304876371	0.100000674467083	stim14_sf2_pattern2_cont2_shape1.png	2	2	2	1	1	4	0	0	0	0	0	0	0	0	0	0	0	0	1	20
88.20703125	0.0999631388785929	180648	27	13	stim13_sf2_pattern2_cont1_shape2.png	0	27	0	329.48631871762	329.586281856498	0.0999631388785929	stim13_sf2_pattern2_cont1_shape2.png	2	2	1	2	1	1	0	0	0	0	0	0	0	0	0	0	0	0	1	20
88.70654296875	0.0999948095304717	181671	28	5	stim05_sf1_pattern2_cont1_shape2.png	0	28	0	329.986322383205	330.086317192736	0.0999948095304717	stim05_sf1_pattern2_cont1_shape2.png	1	2	1	2	1	1	0	0	0	0	0	0	0	0	0	0	0	0	1	20
89.20654296875	0.0999904108302871	182695	29	12	stim12_sf2_pattern2_cont1_shape1.png	0	29	0	330.486316371645	330.586306782476	0.0999904108302871	stim12_sf2_pattern2_cont1_shape1.png	2	2	1	1	1	3	0	0	0	0	0	0	0	0	0	0	0	0	1	20
89.70654296875	0.100005659664021	183719	30	10	stim10_sf2_pattern1_cont2_shape1.png	0	30	0	330.986293645019	331.086299304683	0.100005659664021	stim10_sf2_pattern1_cont2_shape1.png	2	1	2	1	1	4	0	0	0	0	0	0	0	0	0	0	0	0	1	20
90.20654296875	0.100000381220525	184743	31	2	stim02_sf1_pattern1_cont2_shape1.png	0	31	0	331.486300243072	331.586300624293	0.100000381220525	stim02_sf1_pattern1_cont2_shape1.png	1	1	2	1	1	4	0	0	0	0	0	0	0	0	0	0	0	0	1	20
90.70654296875	0.099986598621399	185767	32	5	stim05_sf1_pattern2_cont1_shape2.png	0	32	1	331.986300682942	332.086287281563	0.099986598621399	stim05_sf1_pattern2_cont1_shape2.png	1	2	1	2	1	1	0	0	0	0	0	0	0	0	0	0	0	0	1	20
91.20654296875	0.0999924635561911	186791	33	5	stim05_sf1_pattern2_cont1_shape2.png	0	33	1	332.486306108009	332.586298571565	0.0999924635561911	stim05_sf1_pattern2_cont1_shape2.png	1	2	1	2	1	1	0	0	0	0	0	0	0	0	0	0	0	0	1	20
91.70654296875	0.100005073169086	187815	34	10	stim10_sf2_pattern1_cont2_shape1.png	0	34	2	332.986272824497	333.086277897666	0.100005073169086	stim10_sf2_pattern1_cont2_shape1.png	2	1	2	1	1	4	0	0	0	0	0	0	0	0	0	0	0	0	1	20
92.20654296875	0.0999956892719638	188839	35	9	stim09_sf2_pattern1_cont1_shape2.png	0	35	2	333.486283528006	333.586279217277	0.0999956892719638	stim09_sf2_pattern1_cont1_shape2.png	2	1	1	2	1	1	0	0	0	0	0	0	0	0	0	0	0	0	1	20
92.70654296875	0.0999792674519995	189863	36	11	stim11_sf2_pattern1_cont2_shape2.png	0	36	0	333.986294231512	334.086273498964	0.0999792674519995	stim11_sf2_pattern1_cont2_shape2.png	2	1	2	2	1	2	0	0	0	0	0	0	0	0	0	0	0	0	1	20
93.20654296875	0.0999997947274096	190887	37	1	stim01_sf1_pattern1_cont1_shape2.png	0	37	0	334.486262120989	334.586261915716	0.0999997947274096	stim01_sf1_pattern1_cont1_shape2.png	1	1	1	2	1	1	0	0	0	0	0	0	0	0	0	0	0	0	1	20
93.70654296875	0.100001260960198	191911	38	10	stim10_sf2_pattern1_cont2_shape1.png	0	38	0	334.986251124235	335.086252385196	0.100001260960198	stim10_sf2_pattern1_cont2_shape1.png	2	1	2	1	1	4	0	0	0	0	0	0	0	0	0	0	0	0	1	20
94.20654296875	0.0999995014808519	192935	39	5	stim05_sf1_pattern2_cont1_shape2.png	0	39	0	335.486228984102	335.586228485583	0.0999995014808519	stim05_sf1_pattern2_cont1_shape2.png	1	2	1	2	1	1	0	0	0	0	0	0	0	0	0	0	0	0	1	20
94.70654296875	0.0999986217393598	193959	40	9	stim09_sf2_pattern1_cont1_shape2.png	0	40	0	335.986239394364	336.086238016103	0.0999986217393598	stim09_sf2_pattern1_cont1_shape2.png	2	1	1	2	1	1	0	0	0	0	0	0	0	0	0	0	0	0	1	20
95.20654296875	0.0999971555065713	194983	41	6	stim06_sf1_pattern2_cont2_shape1.png	0	41	0	336.48623191657	336.586229072076	0.0999971555065713	stim06_sf1_pattern2_cont2_shape1.png	1	2	2	1	1	4	0	0	0	0	0	0	0	0	0	0	0	0	1	20
95.70654296875	0.100014457066209	196007	42	12	stim12_sf2_pattern2_cont1_shape1.png	0	42	0	336.98619130189	337.086205758957	0.100014457066209	stim12_sf2_pattern2_cont1_shape1.png	2	2	1	1	1	3	0	0	0	0	0	0	0	0	0	0	0	0	1	20
96.20654296875	0.0999968622581946	197031	43	14	stim14_sf2_pattern2_cont2_shape1.png	0	43	0	337.486216667738	337.586213529996	0.0999968622581946	stim14_sf2_pattern2_cont2_shape1.png	2	2	2	1	1	4	0	0	0	0	0	0	0	0	0	0	0	0	1	20
96.70654296875	0.100020028754443	198055	44	2	stim02_sf1_pattern1_cont2_shape1.png	0	44	0	337.986170774615	338.086190803369	0.100020028754443	stim02_sf1_pattern1_cont2_shape1.png	1	1	2	1	1	4	0	0	0	0	0	0	0	0	0	0	0	0	1	20
97.20654296875	0.0999953960254061	199079	45	4	stim04_sf1_pattern2_cont1_shape1.png	0	45	0	338.48620171215	338.586197108176	0.0999953960254061	stim04_sf1_pattern2_cont1_shape1.png	1	2	1	1	1	3	0	0	0	0	0	0	0	0	0	0	0	0	1	20
97.70654296875	0.100011231352255	200103	46	3	stim03_sf1_pattern1_cont2_shape2.png	0	46	0	338.986161977211	339.086173208563	0.100011231352255	stim03_sf1_pattern1_cont2_shape2.png	1	1	2	2	1	2	0	0	0	0	0	0	0	0	0	0	0	0	1	20
98.20654296875	0.0999924635561911	201127	47	8	stim08_sf2_pattern1_cont1_shape1.png	0	47	0	339.486184410591	339.586176874147	0.0999924635561911	stim08_sf2_pattern1_cont1_shape1.png	2	1	1	1	1	3	0	0	0	0	0	0	0	0	0	0	0	0	1	20
98.70654296875	0.10001914901477	202151	48	15	stim15_sf2_pattern2_cont2_shape2.png	0	48	0	339.986139690454	340.086158839469	0.10001914901477	stim15_sf2_pattern2_cont2_shape2.png	2	2	2	2	1	2	0	0	0	0	0	0	0	0	0	0	0	0	1	20
99.20654296875	0.100001554208575	203175	49	7	stim07_sf1_pattern2_cont2_shape2.png	0	49	0	340.486167109029	340.586168663238	0.100001554208575	stim07_sf1_pattern2_cont2_shape2.png	1	2	2	2	1	2	0	0	0	0	0	0	0	0	0	0	0	0	1	20
99.70654296875	0.0999997947274096	204199	50	0	stim00_sf1_pattern1_cont1_shape1.png	0	50	0	340.986144968896	341.086144763623	0.0999997947274096	stim00_sf1_pattern1_cont1_shape1.png	1	1	1	1	1	3	0	0	0	0	0	0	0	0	0	0	0	0	1	20
100.20654296875	0.100003606936298	205223	51	13	stim13_sf2_pattern2_cont1_shape2.png	0	51	0	341.486145115519	341.586148722456	0.100003606936298	stim13_sf2_pattern2_cont1_shape2.png	2	2	1	2	1	1	0	0	0	0	0	0	0	0	0	0	0	0	1	20
100.70654296875	0.0999572739419818	206247	52	10	stim10_sf2_pattern1_cont2_shape1.png	0	52	0	341.98614379591	342.086101069852	0.0999572739419818	stim10_sf2_pattern1_cont2_shape1.png	2	1	2	1	1	4	0	0	0	0	0	0	0	0	0	0	0	0	1	20
101.20654296875	0.100000381220525	207271	53	7	stim07_sf1_pattern2_cont2_shape2.png	0	53	0	342.486120776037	342.586121157257	0.100000381220525	stim07_sf1_pattern2_cont2_shape2.png	1	2	2	2	1	2	0	0	0	0	0	0	0	0	0	0	0	0	1	20
101.70654296875	0.0999930500511255	208295	54	2	stim02_sf1_pattern1_cont2_shape1.png	0	54	0	342.986072243693	343.086065293744	0.0999930500511255	stim02_sf1_pattern1_cont2_shape1.png	1	1	2	1	1	4	0	0	0	0	0	0	0	0	0	0	0	0	1	20
102.20654296875	0.0999977419996867	209319	55	4	stim04_sf1_pattern2_cont1_shape1.png	0	55	0	343.486077375512	343.586075117511	0.0999977419996867	stim04_sf1_pattern2_cont1_shape1.png	1	2	1	1	1	3	0	0	0	0	0	0	0	0	0	0	0	0	1	20
102.70654296875	0.0999889445956796	210343	56	11	stim11_sf2_pattern1_cont2_shape2.png	0	56	0	343.986062273301	344.086051217897	0.0999889445956796	stim11_sf2_pattern1_cont2_shape2.png	2	1	2	2	1	2	0	0	0	0	0	0	0	0	0	0	0	0	1	20
103.20654296875	0.0999992082324752	211367	57	6	stim06_sf1_pattern2_cont2_shape1.png	0	57	0	344.486061246938	344.586060455171	0.0999992082324752	stim06_sf1_pattern2_cont2_shape1.png	1	2	2	1	1	4	0	0	0	0	0	0	0	0	0	0	0	0	1	20
103.70654296875	0.100924401856901	212391	58	12	stim12_sf2_pattern2_cont1_shape1.png	0	58	0	344.986061980055	345.086986381912	0.100924401856901	stim12_sf2_pattern2_cont1_shape1.png	2	2	1	1	1	3	0	0	0	0	0	0	0	0	0	0	0	0	1	20
104.20654296875	0.100010938103878	213415	59	0	stim00_sf1_pattern1_cont1_shape1.png	0	59	0	345.486051863041	345.586062801145	0.100010938103878	stim00_sf1_pattern1_cont1_shape1.png	1	1	1	1	1	3	0	0	0	0	0	0	0	0	0	0	0	0	1	20
104.70654296875	0.100000381220525	214439	60	15	stim15_sf2_pattern2_cont2_shape2.png	0	60	0	345.986070484212	346.086070865433	0.100000381220525	stim15_sf2_pattern2_cont2_shape2.png	2	2	2	2	1	2	0	0	0	0	0	0	0	0	0	0	0	0	1	20
105.20654296875	0.0999863053748413	215463	61	3	stim03_sf1_pattern1_cont2_shape2.png	0	61	0	346.48606652538	346.586052830755	0.0999863053748413	stim03_sf1_pattern1_cont2_shape2.png	1	1	2	2	1	2	0	0	0	0	0	0	0	0	0	0	0	0	1	20
105.7060546875	0.0999716430342232	216486	62	8	stim08_sf2_pattern1_cont1_shape1.png	0	62	0	346.98607253694	347.086044179974	0.0999716430342232	stim08_sf2_pattern1_cont1_shape1.png	2	1	1	1	1	3	0	0	0	0	0	0	0	0	0	0	0	0	1	20
106.2060546875	0.0999971555065713	217510	63	9	stim09_sf2_pattern1_cont1_shape2.png	0	63	0	347.486065059145	347.586062214652	0.0999971555065713	stim09_sf2_pattern1_cont1_shape2.png	2	1	1	2	1	1	0	0	0	0	0	0	0	0	0	0	0	0	1	20
106.7060546875	0.0999939297926176	218534	64	14	stim14_sf2_pattern2_cont2_shape1.png	0	64	0	347.986064619276	348.086058549068	0.0999939297926176	stim14_sf2_pattern2_cont2_shape1.png	2	2	2	1	1	4	0	0	0	0	0	0	0	0	0	0	0	0	1	20
107.2060546875	0.099994516285733	219558	65	1	stim01_sf1_pattern1_cont1_shape2.png	0	65	0	348.486043358884	348.586037875169	0.099994516285733	stim01_sf1_pattern1_cont1_shape2.png	1	1	1	2	1	1	0	0	0	0	0	0	0	0	0	0	0	0	1	20
107.7060546875	0.0999953960254061	220582	66	5	stim05_sf1_pattern2_cont1_shape2.png	0	66	0	348.986036467584	349.08603186361	0.0999953960254061	stim05_sf1_pattern2_cont1_shape2.png	1	2	1	2	1	1	0	0	0	0	0	0	0	0	0	0	0	0	1	20
108.2060546875	0.100001260962017	221606	67	7	stim07_sf1_pattern2_cont2_shape2.png	0	67	1	349.486045998105	349.586047259067	0.100001260962017	stim07_sf1_pattern2_cont2_shape2.png	1	2	2	2	1	2	0	0	0	0	0	0	0	0	0	0	0	0	1	20
108.71435546875	0.0999880648560065	222647	68	7	stim07_sf1_pattern2_cont2_shape2.png	0	68	1	349.994345908635	350.094333973491	0.0999880648560065	stim07_sf1_pattern2_cont2_shape2.png	1	2	2	2	1	2	0	0	0	0	0	0	0	0	0	0	0	0	1	20
109.21435546875	0.099994516285733	223671	69	13	stim13_sf2_pattern2_cont1_shape2.png	0	69	2	350.494329633439	350.594324149724	0.099994516285733	stim13_sf2_pattern2_cont1_shape2.png	2	2	1	2	1	1	0	0	0	0	0	0	0	0	0	0	0	0	1	20
109.71435546875	0.0999942230373563	224695	70	10	stim10_sf2_pattern1_cont2_shape1.png	0	70	2	350.994322155646	351.094316378683	0.0999942230373563	stim10_sf2_pattern1_cont2_shape1.png	2	1	2	1	1	4	0	0	0	0	0	0	0	0	0	0	0	0	1	20
110.21435546875	0.0999490630310902	225719	71	13	stim13_sf2_pattern2_cont1_shape2.png	0	71	0	351.494354266169	351.594303329201	0.0999490630310902	stim13_sf2_pattern2_cont1_shape2.png	2	2	1	2	1	1	0	0	0	0	0	0	0	0	0	0	0	0	1	20
110.71435546875	0.0999971555065713	226743	72	15	stim15_sf2_pattern2_cont2_shape2.png	0	72	0	351.994305147331	352.094302302838	0.0999971555065713	stim15_sf2_pattern2_cont2_shape2.png	2	2	2	2	1	2	0	0	0	0	0	0	0	0	0	0	0	0	1	20
111.21435546875	0.100004193429413	227767	73	5	stim05_sf1_pattern2_cont1_shape2.png	0	73	0	352.494312625124	352.594316818553	0.100004193429413	stim05_sf1_pattern2_cont1_shape2.png	1	2	1	2	1	1	0	0	0	0	0	0	0	0	0	0	0	0	1	20
111.71435546875	0.0999449575774634	228791	74	11	stim11_sf2_pattern1_cont2_shape2.png	0	74	0	352.994316290709	353.094261248287	0.0999449575774634	stim11_sf2_pattern1_cont2_shape2.png	2	1	2	2	1	2	0	0	0	0	0	0	0	0	0	0	0	0	1	20
112.21435546875	0.10000214070169	229815	75	4	stim04_sf1_pattern2_cont1_shape1.png	0	75	0	353.494293270836	353.594295411538	0.10000214070169	stim04_sf1_pattern2_cont1_shape1.png	1	2	1	1	1	3	0	0	0	0	0	0	0	0	0	0	0	0	1	20
112.71435546875	0.0999977419996867	230839	76	9	stim09_sf2_pattern1_cont1_shape2.png	0	76	0	353.994289898499	354.094287640499	0.0999977419996867	stim09_sf2_pattern1_cont1_shape2.png	2	1	1	2	1	1	0	0	0	0	0	0	0	0	0	0	0	0	1	20
113.21435546875	0.100006246155317	231863	77	3	stim03_sf1_pattern1_cont2_shape2.png	0	77	0	354.494271570575	354.59427781673	0.100006246155317	stim03_sf1_pattern1_cont2_shape2.png	1	1	2	2	1	2	0	0	0	0	0	0	0	0	0	0	0	0	1	20
113.71435546875	0.099997448753129	232887	78	1	stim01_sf1_pattern1_cont1_shape2.png	0	78	0	354.994274063172	355.094271511925	0.099997448753129	stim01_sf1_pattern1_cont1_shape2.png	1	1	1	2	1	1	0	0	0	0	0	0	0	0	0	0	0	0	1	20
114.21435546875	0.100008592131417	233911	79	10	stim10_sf2_pattern1_cont2_shape1.png	0	79	0	355.49425368252	355.594262274652	0.100008592131417	stim10_sf2_pattern1_cont2_shape1.png	2	1	2	1	1	4	0	0	0	0	0	0	0	0	0	0	0	0	1	20
114.71435546875	0.0999951027788484	234935	80	6	stim06_sf1_pattern2_cont2_shape1.png	0	80	0	355.994256468364	356.094251571143	0.0999951027788484	stim06_sf1_pattern2_cont2_shape1.png	1	2	2	1	1	4	0	0	0	0	0	0	0	0	0	0	0	0	1	20
115.21435546875	0.100010938105697	235959	81	12	stim12_sf2_pattern2_cont1_shape1.png	0	81	0	356.494236967452	356.594247905557	0.100010938105697	stim12_sf2_pattern2_cont1_shape1.png	2	2	1	1	1	3	0	0	0	0	0	0	0	0	0	0	0	0	1	20
115.71435546875	0.0999953960254061	236983	82	0	stim00_sf1_pattern1_cont1_shape1.png	0	82	0	356.994245911479	357.094241307504	0.0999953960254061	stim00_sf1_pattern1_cont1_shape1.png	1	1	1	1	1	3	0	0	0	0	0	0	0	0	0	0	0	0	1	20
116.21435546875	0.100003020443182	238007	83	13	stim13_sf2_pattern2_cont1_shape2.png	0	83	0	357.494222891606	357.594225912049	0.100003020443182	stim13_sf2_pattern2_cont1_shape2.png	2	2	1	2	1	1	0	0	0	0	0	0	0	0	0	0	0	0	1	20
116.71435546875	0.100020615249377	239031	84	8	stim08_sf2_pattern1_cont1_shape1.png	0	84	0	357.994205443423	358.094226058673	0.100020615249377	stim08_sf2_pattern1_cont1_shape1.png	2	1	1	1	1	3	0	0	0	0	0	0	0	0	0	0	0	0	1	20
117.21435546875	0.100004193429413	240055	85	14	stim14_sf2_pattern2_cont2_shape1.png	0	85	0	358.494207642774	358.594211836204	0.100004193429413	stim14_sf2_pattern2_cont2_shape1.png	2	2	2	1	1	4	0	0	0	0	0	0	0	0	0	0	0	0	1	20
117.71435546875	0.0999986217393598	241079	86	2	stim02_sf1_pattern1_cont2_shape1.png	0	86	0	358.994212481346	359.094211103085	0.0999986217393598	stim02_sf1_pattern1_cont2_shape1.png	1	1	2	1	1	4	0	0	0	0	0	0	0	0	0	0	0	0	1	20
118.21435546875	0.100003606936298	242103	87	7	stim07_sf1_pattern2_cont2_shape2.png	0	87	0	359.494190047966	359.594193654902	0.100003606936298	stim07_sf1_pattern2_cont2_shape2.png	1	2	2	2	1	2	0	0	0	0	0	0	0	0	0	0	0	0	1	20
118.71435546875	0.0999953960254061	243127	88	11	stim11_sf2_pattern1_cont2_shape2.png	0	88	0	359.994198112254	360.094193508279	0.0999953960254061	stim11_sf2_pattern1_cont2_shape2.png	2	1	2	2	1	2	0	0	0	0	0	0	0	0	0	0	0	0	1	20
119.21435546875	0.0999921703096334	244151	89	7	stim07_sf1_pattern2_cont2_shape2.png	0	89	0	360.494179784329	360.594171954639	0.0999921703096334	stim07_sf1_pattern2_cont2_shape2.png	1	2	2	2	1	2	0	0	0	0	0	0	0	0	0	0	0	0	1	20
119.71435546875	0.0999986217393598	245175	90	10	stim10_sf2_pattern1_cont2_shape1.png	0	90	0	360.994183156667	361.094181778406	0.0999986217393598	stim10_sf2_pattern1_cont2_shape1.png	2	1	2	1	1	4	0	0	0	0	0	0	0	0	0	0	0	0	1	20
120.21435546875	0.100004193429413	246199	91	6	stim06_sf1_pattern2_cont2_shape1.png	0	91	0	361.494153392117	361.594157585547	0.100004193429413	stim06_sf1_pattern2_cont2_shape1.png	1	2	2	1	1	4	0	0	0	0	0	0	0	0	0	0	0	0	1	20
120.71435546875	0.0999889445956796	247223	92	5	stim05_sf1_pattern2_cont1_shape2.png	0	92	0	361.994171426795	362.094160371391	0.0999889445956796	stim05_sf1_pattern2_cont1_shape2.png	1	2	1	2	1	1	0	0	0	0	0	0	0	0	0	0	0	0	1	20
121.21435546875	0.100000087973967	248247	93	4	stim04_sf1_pattern2_cont1_shape1.png	0	93	0	362.494136677051	362.594136765025	0.100000087973967	stim04_sf1_pattern2_cont1_shape1.png	1	2	1	1	1	3	0	0	0	0	0	0	0	0	0	0	0	0	1	20
121.71435546875	0.100033518107011	249271	94	9	stim09_sf2_pattern1_cont1_shape2.png	0	94	0	362.994145914325	363.094179432432	0.100033518107011	stim09_sf2_pattern1_cont1_shape2.png	2	1	1	2	1	1	0	0	0	0	0	0	0	0	0	0	0	0	1	20
122.21435546875	0.100025307197939	250295	95	8	stim08_sf2_pattern1_cont1_shape1.png	0	95	0	363.494100314449	363.594125621647	0.100025307197939	stim08_sf2_pattern1_cont1_shape1.png	2	1	1	1	1	3	0	0	0	0	0	0	0	0	0	0	0	0	1	20
122.71435546875	0.099997448753129	251319	96	12	stim12_sf2_pattern2_cont1_shape1.png	0	96	0	363.994112777436	364.09411022619	0.099997448753129	stim12_sf2_pattern2_cont1_shape1.png	2	2	1	1	1	3	0	0	0	0	0	0	0	0	0	0	0	0	1	20
123.21435546875	0.0999769214777189	252343	97	3	stim03_sf1_pattern1_cont2_shape2.png	0	97	0	364.494111751073	364.594088672551	0.0999769214777189	stim03_sf1_pattern1_cont2_shape2.png	1	1	2	2	1	2	0	0	0	0	0	0	0	0	0	0	0	0	1	20
123.7138671875	0.0999731092688307	253366	98	13	stim13_sf2_pattern2_cont1_shape2.png	0	98	0	364.9941025138	365.094075623068	0.0999731092688307	stim13_sf2_pattern2_cont1_shape2.png	2	2	1	2	1	1	0	0	0	0	0	0	0	0	0	0	0	0	1	20
124.2138671875	0.100018562521655	254390	99	14	stim14_sf2_pattern2_cont2_shape1.png	0	99	0	365.494091810291	365.594110372813	0.100018562521655	stim14_sf2_pattern2_cont2_shape1.png	2	2	2	1	1	4	0	0	0	0	0	0	0	0	0	0	0	0	1	20
124.7138671875	0.0999977419996867	255414	100	1	stim01_sf1_pattern1_cont1_shape2.png	0	100	0	365.994091956914	366.094089698914	0.0999977419996867	stim01_sf1_pattern1_cont1_shape2.png	1	1	1	2	1	1	0	0	0	0	0	0	0	0	0	0	0	0	1	20
125.2138671875	0.0999930500511255	256438	101	15	stim15_sf2_pattern2_cont2_shape2.png	0	101	0	366.494086238603	366.594079288654	0.0999930500511255	stim15_sf2_pattern2_cont2_shape2.png	2	2	2	2	1	2	0	0	0	0	0	0	0	0	0	0	0	0	1	20
125.7138671875	0.0999921703114524	257462	102	0	stim00_sf1_pattern1_cont1_shape1.png	0	102	0	366.994060286261	367.094052456572	0.0999921703114524	stim00_sf1_pattern1_cont1_shape1.png	1	1	1	1	1	3	0	0	0	0	0	0	0	0	0	0	0	0	1	20
126.2138671875	0.0999827864125109	258486	103	2	stim02_sf1_pattern1_cont2_shape1.png	0	103	0	367.49406277886	367.594045565273	0.0999827864125109	stim02_sf1_pattern1_cont2_shape1.png	1	1	2	1	1	4	0	0	0	0	0	0	0	0	0	0	0	0	1	20
126.7138671875	0.0999992082342942	259510	104	13	stim13_sf2_pattern2_cont1_shape2.png	0	104	0	367.994080227043	368.094079435277	0.0999992082342942	stim13_sf2_pattern2_cont1_shape2.png	2	2	1	2	1	1	0	0	0	0	0	0	0	0	0	0	0	0	1	20
127.2138671875	0.0999344006922911	260534	105	1	stim01_sf1_pattern1_cont1_shape2.png	0	105	0	368.494091223798	368.59402562449	0.0999344006922911	stim01_sf1_pattern1_cont1_shape2.png	1	1	1	2	1	1	0	0	0	0	0	0	0	0	0	0	0	0	1	20
127.7138671875	0.0999648983579391	261558	106	3	stim03_sf1_pattern1_cont2_shape2.png	0	106	0	368.99406321873	369.094028117088	0.0999648983579391	stim03_sf1_pattern1_cont2_shape2.png	1	1	2	2	1	2	0	0	0	0	0	0	0	0	0	0	0	0	1	20
128.2138671875	0.0999373331615061	262582	107	5	stim05_sf1_pattern2_cont1_shape2.png	0	107	0	369.494048409766	369.593985742928	0.0999373331615061	stim05_sf1_pattern2_cont1_shape2.png	1	2	1	2	1	1	0	0	0	0	0	0	0	0	0	0	0	0	1	20
128.7138671875	0.0999924635580101	263606	108	2	stim02_sf1_pattern1_cont2_shape1.png	0	108	0	369.994045330675	370.094037794233	0.0999924635580101	stim02_sf1_pattern1_cont2_shape1.png	1	1	2	1	1	4	0	0	0	0	0	0	0	0	0	0	0	0	1	20
129.2138671875	0.0999968622600136	264630	109	9	stim09_sf2_pattern1_cont1_shape2.png	0	109	0	370.494034627167	370.594031489427	0.0999968622600136	stim09_sf2_pattern1_cont1_shape2.png	2	1	1	2	1	1	0	0	0	0	0	0	0	0	0	0	0	0	1	20
129.7138671875	0.0999942230373563	265654	110	12	stim12_sf2_pattern2_cont1_shape1.png	0	110	0	370.994029495349	371.094023718386	0.0999942230373563	stim12_sf2_pattern2_cont1_shape1.png	2	2	1	1	1	3	0	0	0	0	0	0	0	0	0	0	0	0	1	20
130.2138671875	0.100005952910578	266678	111	8	stim08_sf2_pattern1_cont1_shape1.png	0	111	1	371.494004129501	371.594010082412	0.100005952910578	stim08_sf2_pattern1_cont1_shape1.png	2	1	1	1	1	3	0	0	0	0	0	0	0	0	0	0	0	0	1	20
130.7138671875	0.0999874783610721	267702	112	8	stim08_sf2_pattern1_cont1_shape1.png	0	112	1	371.994017765477	372.094005243838	0.0999874783610721	stim08_sf2_pattern1_cont1_shape1.png	2	1	1	1	1	3	0	0	0	0	0	0	0	0	0	0	0	0	1	20
131.2138671875	0.0999716430342232	268726	113	13	stim13_sf2_pattern2_cont1_shape2.png	0	113	2	372.494028468986	372.59400011202	0.0999716430342232	stim13_sf2_pattern2_cont1_shape2.png	2	2	1	2	1	1	0	0	0	0	0	0	0	0	0	0	0	0	1	20
131.7138671875	0.100012404338486	269750	114	5	stim05_sf1_pattern2_cont1_shape2.png	0	114	2	372.993981109628	373.093993513967	0.100012404338486	stim05_sf1_pattern2_cont1_shape2.png	1	2	1	2	1	1	0	0	0	0	0	0	0	0	0	0	0	0	1	20
132.2138671875	0.0999968622600136	270774	115	10	stim10_sf2_pattern1_cont2_shape1.png	0	115	0	373.493988294174	373.593985156434	0.0999968622600136	stim10_sf2_pattern1_cont2_shape1.png	2	1	2	1	1	4	0	0	0	0	0	0	0	0	0	0	0	0	1	20
132.7138671875	0.100002727194806	271798	116	8	stim08_sf2_pattern1_cont1_shape1.png	0	116	0	373.993974658199	374.093977385393	0.100002727194806	stim08_sf2_pattern1_cont1_shape1.png	2	1	1	1	1	3	0	0	0	0	0	0	0	0	0	0	0	0	1	20
133.2138671875	0.100003900182855	272822	117	7	stim07_sf1_pattern2_cont2_shape2.png	0	117	0	374.49395486404	374.593958764222	0.100003900182855	stim07_sf1_pattern2_cont2_shape2.png	1	2	2	2	1	2	0	0	0	0	0	0	0	0	0	0	0	0	1	20
133.7138671875	0.100004779922529	273846	118	14	stim14_sf2_pattern2_cont2_shape1.png	0	118	0	374.993948559235	375.093953339157	0.100004779922529	stim14_sf2_pattern2_cont2_shape1.png	2	2	2	1	1	4	0	0	0	0	0	0	0	0	0	0	0	0	1	20
134.2138671875	0.0999983284928021	274870	119	0	stim00_sf1_pattern1_cont1_shape1.png	0	119	0	375.493958383002	375.593956711495	0.0999983284928021	stim00_sf1_pattern1_cont1_shape1.png	1	1	1	1	1	3	0	0	0	0	0	0	0	0	0	0	0	0	1	20
134.7138671875	0.100002727194806	275894	120	4	stim04_sf1_pattern2_cont1_shape1.png	0	120	0	375.993945920014	376.093948647209	0.100002727194806	stim04_sf1_pattern2_cont1_shape1.png	1	2	1	1	1	3	0	0	0	0	0	0	0	0	0	0	0	0	1	20
135.2138671875	0.0999713497876655	276918	121	15	stim15_sf2_pattern2_cont2_shape2.png	0	121	0	376.493943720663	376.593915070451	0.0999713497876655	stim15_sf2_pattern2_cont2_shape2.png	2	2	2	2	1	2	0	0	0	0	0	0	0	0	0	0	0	0	1	20
135.7138671875	0.0999971555065713	277942	122	11	stim11_sf2_pattern1_cont2_shape2.png	0	122	0	376.993940348324	377.093937503831	0.0999971555065713	stim11_sf2_pattern1_cont2_shape2.png	2	1	2	2	1	2	0	0	0	0	0	0	0	0	0	0	0	0	1	20
136.2138671875	0.0999813201797224	278966	123	6	stim06_sf1_pattern2_cont2_shape1.png	0	123	0	377.493927005595	377.593908325774	0.0999813201797224	stim06_sf1_pattern2_cont2_shape1.png	1	2	2	1	1	4	0	0	0	0	0	0	0	0	0	0	0	0	1	20
136.7138671875	0.100024720704823	279990	124	5	stim05_sf1_pattern2_cont1_shape2.png	0	124	0	377.993888443641	378.093913164346	0.100024720704823	stim05_sf1_pattern2_cont1_shape2.png	1	2	1	2	1	1	0	0	0	0	0	0	0	0	0	0	0	0	1	20
137.2138671875	0.100029119405008	281014	125	10	stim10_sf2_pattern1_cont2_shape1.png	0	125	0	378.493900613385	378.59392973279	0.100029119405008	stim10_sf2_pattern1_cont2_shape1.png	2	1	2	1	1	4	0	0	0	0	0	0	0	0	0	0	0	0	1	20
137.7138671875	0.0999986217411788	282038	126	2	stim02_sf1_pattern1_cont2_shape1.png	0	126	0	378.993879059744	379.093877681486	0.0999986217411788	stim02_sf1_pattern1_cont2_shape1.png	1	1	2	1	1	4	0	0	0	0	0	0	0	0	0	0	0	0	1	20
138.2138671875	0.100012697585043	283062	127	6	stim06_sf1_pattern2_cont2_shape1.png	0	127	0	379.493858972341	379.593871669926	0.100012697585043	stim06_sf1_pattern2_cont2_shape1.png	1	2	2	1	1	4	0	0	0	0	0	0	0	0	0	0	0	0	1	20
138.7138671875	0.0999992082324752	284086	128	8	stim08_sf2_pattern1_cont1_shape1.png	0	128	0	379.993870555589	380.093869763821	0.0999992082324752	stim08_sf2_pattern1_cont1_shape1.png	2	1	1	1	1	3	0	0	0	0	0	0	0	0	0	0	0	0	1	20
139.2138671875	0.100000087973967	285110	129	7	stim07_sf1_pattern2_cont2_shape2.png	0	129	0	380.493857799353	380.593857887327	0.100000087973967	stim07_sf1_pattern2_cont2_shape2.png	1	2	2	2	1	2	0	0	0	0	0	0	0	0	0	0	0	0	1	20
139.7138671875	0.099983666154003	286134	130	0	stim00_sf1_pattern1_cont1_shape1.png	0	130	0	380.993860585197	381.093844251351	0.099983666154003	stim00_sf1_pattern1_cont1_shape1.png	1	1	1	1	1	3	0	0	0	0	0	0	0	0	0	0	0	0	1	20
140.2138671875	0.100005952908759	287158	131	4	stim04_sf1_pattern2_cont1_shape1.png	0	131	0	381.493847535716	381.593853488625	0.100005952908759	stim04_sf1_pattern2_cont1_shape1.png	1	2	1	1	1	3	0	0	0	0	0	0	0	0	0	0	0	0	1	20
140.7138671875	0.0999827864125109	288182	132	13	stim13_sf2_pattern2_cont1_shape2.png	0	132	0	381.993851787794	382.093834574207	0.0999827864125109	stim13_sf2_pattern2_cont1_shape2.png	2	2	1	2	1	1	0	0	0	0	0	0	0	0	0	0	0	0	1	20
141.21337890625	0.0999748687499959	289205	133	11	stim11_sf2_pattern1_cont2_shape2.png	0	133	0	382.493855453378	382.593830322128	0.0999748687499959	stim11_sf2_pattern1_cont2_shape2.png	2	1	2	2	1	2	0	0	0	0	0	0	0	0	0	0	0	0	1	20
141.71337890625	0.100015336805882	290229	134	12	stim12_sf2_pattern2_cont1_shape1.png	0	134	0	382.993819823894	383.0938351607	0.100015336805882	stim12_sf2_pattern2_cont1_shape1.png	2	2	1	1	1	3	0	0	0	0	0	0	0	0	0	0	0	0	1	20
142.21337890625	0.0999772147242766	291253	135	9	stim09_sf2_pattern1_cont1_shape2.png	0	135	0	383.493841964026	383.59381917875	0.0999772147242766	stim09_sf2_pattern1_cont1_shape2.png	2	1	1	2	1	1	0	0	0	0	0	0	0	0	0	0	0	0	1	20
142.71337890625	0.100013577326536	292277	136	3	stim03_sf1_pattern1_cont2_shape2.png	0	136	0	383.993811319737	384.093824897063	0.100013577326536	stim03_sf1_pattern1_cont2_shape2.png	1	1	2	2	1	2	0	0	0	0	0	0	0	0	0	0	0	0	1	20
143.21337890625	0.10000214070169	293301	137	15	stim15_sf2_pattern2_cont2_shape2.png	0	137	0	384.493814692074	384.593816832776	0.10000214070169	stim15_sf2_pattern2_cont2_shape2.png	2	2	2	2	1	2	0	0	0	0	0	0	0	0	0	0	0	0	1	20
143.71337890625	0.100000087973967	294325	138	1	stim01_sf1_pattern1_cont1_shape2.png	0	138	0	384.99379460467	385.093794692644	0.100000087973967	stim01_sf1_pattern1_cont1_shape2.png	1	1	1	2	1	1	0	0	0	0	0	0	0	0	0	0	0	0	1	20
144.21337890625	0.100022081483985	295349	139	14	stim14_sf2_pattern2_cont2_shape1.png	0	139	0	385.493781555188	385.593803636672	0.100022081483985	stim14_sf2_pattern2_cont2_shape1.png	2	2	2	1	1	4	0	0	0	0	0	0	0	0	0	0	0	0	1	20
144.71337890625	0.10000214070169	296373	140	12	stim12_sf2_pattern2_cont1_shape1.png	0	140	0	385.99377906259	386.093781203292	0.10000214070169	stim12_sf2_pattern2_cont1_shape1.png	2	2	1	1	1	3	0	0	0	0	0	0	0	0	0	0	0	0	1	20
145.21337890625	0.0999804404400493	297397	141	7	stim07_sf1_pattern2_cont2_shape2.png	0	141	0	386.493788886357	386.593769326797	0.0999804404400493	stim07_sf1_pattern2_cont2_shape2.png	1	2	2	2	1	2	0	0	0	0	0	0	0	0	0	0	0	0	1	20
145.71337890625	0.100034984341619	298421	142	9	stim09_sf2_pattern1_cont1_shape2.png	0	142	0	386.993728330895	387.093763315237	0.100034984341619	stim09_sf2_pattern1_cont1_shape2.png	2	1	1	2	1	1	0	0	0	0	0	0	0	0	0	0	0	0	1	20
146.21337890625	0.0999980352462444	299445	143	4	stim04_sf1_pattern2_cont1_shape1.png	0	143	0	387.493774224018	387.593772259264	0.0999980352462444	stim04_sf1_pattern2_cont1_shape1.png	1	2	1	1	1	3	0	0	0	0	0	0	0	0	0	0	0	0	1	20
146.71337890625	0.10000214070169	300469	144	10	stim10_sf2_pattern1_cont2_shape1.png	0	144	0	387.993771438172	388.093773578874	0.10000214070169	stim10_sf2_pattern1_cont2_shape1.png	2	1	2	1	1	4	0	0	0	0	0	0	0	0	0	0	0	0	1	20
147.21337890625	0.0999971555065713	301493	145	0	stim00_sf1_pattern1_cont1_shape1.png	0	145	0	388.493758681938	388.593755837444	0.0999971555065713	stim00_sf1_pattern1_cont1_shape1.png	1	1	1	1	1	3	0	0	0	0	0	0	0	0	0	0	0	0	1	20
147.71337890625	0.099977801217392	302517	146	1	stim01_sf1_pattern1_cont1_shape2.png	0	146	0	388.993754136613	389.09373193783	0.099977801217392	stim01_sf1_pattern1_cont1_shape2.png	1	1	1	2	1	1	0	0	0	0	0	0	0	0	0	0	0	0	1	20
148.21337890625	0.0999725227757153	303541	147	14	stim14_sf2_pattern2_cont2_shape1.png	0	147	0	389.493743139858	389.593715662633	0.0999725227757153	stim14_sf2_pattern2_cont2_shape1.png	2	2	2	1	1	4	0	0	0	0	0	0	0	0	0	0	0	0	1	20
148.71337890625	0.0999719362825999	304565	148	8	stim08_sf2_pattern1_cont1_shape1.png	0	148	0	389.993743286481	390.093715222763	0.0999719362825999	stim08_sf2_pattern1_cont1_shape1.png	2	1	1	1	1	3	0	0	0	0	0	0	0	0	0	0	0	0	1	20
149.21337890625	0.100000087973967	305589	149	5	stim05_sf1_pattern2_cont1_shape2.png	0	149	0	390.493728770765	390.593728858739	0.100000087973967	stim05_sf1_pattern2_cont1_shape2.png	1	2	1	2	1	1	0	0	0	0	0	0	0	0	0	0	0	0	1	20
149.71337890625	0.0999643118666427	306613	150	6	stim06_sf1_pattern2_cont2_shape1.png	0	150	0	390.993720706478	391.093685018344	0.0999643118666427	stim06_sf1_pattern2_cont2_shape1.png	1	2	2	1	1	4	0	0	0	0	0	0	0	0	0	0	0	0	1	20
150.21337890625	0.0999951027788484	307637	151	2	stim02_sf1_pattern1_cont2_shape1.png	0	151	0	391.493714988166	391.593710090945	0.0999951027788484	stim02_sf1_pattern1_cont2_shape1.png	1	1	2	1	1	4	0	0	0	0	0	0	0	0	0	0	0	0	1	20
150.71337890625	0.0999839594005607	308661	152	3	stim03_sf1_pattern1_cont2_shape2.png	0	152	0	391.993691968293	392.093675927694	0.0999839594005607	stim03_sf1_pattern1_cont2_shape2.png	1	1	2	2	1	2	0	0	0	0	0	0	0	0	0	0	0	0	1	20
151.21337890625	0.0999382129011792	309685	153	15	stim15_sf2_pattern2_cont2_shape2.png	0	153	0	392.493697100112	392.593635313013	0.0999382129011792	stim15_sf2_pattern2_cont2_shape2.png	2	2	2	2	1	2	0	0	0	0	0	0	0	0	0	0	0	0	1	20
151.71337890625	0.0999385061477369	310709	154	11	stim11_sf2_pattern1_cont2_shape2.png	0	154	0	392.993692554786	393.093631060934	0.0999385061477369	stim11_sf2_pattern1_cont2_shape2.png	2	1	2	2	1	2	0	0	0	0	0	0	0	0	0	0	0	0	1	20
152.21337890625	0.0999939297926176	311733	155	13	stim13_sf2_pattern2_cont1_shape2.png	0	155	0	393.493649594131	393.593643523924	0.0999939297926176	stim13_sf2_pattern2_cont1_shape2.png	2	2	1	2	1	1	0	0	0	0	0	0	0	0	0	0	0	0	1	20
152.71337890625	0.099975748491488	312757	156	15	stim15_sf2_pattern2_cont2_shape2.png	0	156	0	393.993672907251	394.093648655742	0.099975748491488	stim15_sf2_pattern2_cont2_shape2.png	2	2	2	2	1	2	0	0	0	0	0	0	0	0	0	0	0	0	1	20
153.21337890625	0.0999962757650792	313781	157	5	stim05_sf1_pattern2_cont1_shape2.png	0	157	0	394.493645488677	394.593641764443	0.0999962757650792	stim05_sf1_pattern2_cont1_shape2.png	1	2	1	2	1	1	0	0	0	0	0	0	0	0	0	0	0	0	1	20
153.71337890625	0.0999927568045678	314805	158	4	stim04_sf1_pattern2_cont1_shape1.png	0	158	0	394.993640356857	395.093633113662	0.0999927568045678	stim04_sf1_pattern2_cont1_shape1.png	1	2	1	1	1	3	0	0	0	0	0	0	0	0	0	0	0	0	1	20
154.21337890625	0.0999912905699603	315829	159	14	stim14_sf2_pattern2_cont2_shape1.png	0	159	0	395.493634052053	395.593625342623	0.0999912905699603	stim14_sf2_pattern2_cont2_shape1.png	2	2	2	1	1	4	0	0	0	0	0	0	0	0	0	0	0	0	1	20
154.71337890625	0.0999951027788484	316853	160	12	stim12_sf2_pattern2_cont1_shape1.png	0	160	0	395.993628626986	396.093623729765	0.0999951027788484	stim12_sf2_pattern2_cont1_shape1.png	2	2	1	1	1	3	0	0	0	0	0	0	0	0	0	0	0	0	1	20
155.21337890625	0.0999995014808519	317877	161	1	stim01_sf1_pattern1_cont1_shape2.png	0	161	0	396.49361499101	396.593614492491	0.0999995014808519	stim01_sf1_pattern1_cont1_shape2.png	1	1	1	2	1	1	0	0	0	0	0	0	0	0	0	0	0	0	1	20
155.71337890625	0.100012111091928	318901	162	7	stim07_sf1_pattern2_cont2_shape2.png	0	162	0	396.993616017375	397.093628128467	0.100012111091928	stim07_sf1_pattern2_cont2_shape2.png	1	2	2	2	1	2	0	0	0	0	0	0	0	0	0	0	0	0	1	20
156.21337890625	0.100015043559324	319925	163	9	stim09_sf2_pattern1_cont1_shape2.png	0	163	0	397.493609126075	397.593624169634	0.100015043559324	stim09_sf2_pattern1_cont1_shape2.png	2	1	1	2	1	1	0	0	0	0	0	0	0	0	0	0	0	0	1	20
156.71337890625	0.0999880648560065	320949	164	13	stim13_sf2_pattern2_cont1_shape2.png	0	164	0	397.993624228284	398.09361229314	0.0999880648560065	stim13_sf2_pattern2_cont1_shape2.png	2	2	1	2	1	1	0	0	0	0	0	0	0	0	0	0	0	0	1	20
157.21337890625	0.100042608759395	321973	165	8	stim08_sf2_pattern1_cont1_shape1.png	0	165	0	398.493612058543	398.593654667302	0.100042608759395	stim08_sf2_pattern1_cont1_shape1.png	2	1	1	1	1	3	0	0	0	0	0	0	0	0	0	0	0	0	1	20
157.71337890625	0.0999898243371717	322997	166	6	stim06_sf1_pattern2_cont2_shape1.png	0	166	0	398.99361455114	399.093604375477	0.0999898243371717	stim06_sf1_pattern2_cont2_shape1.png	1	2	2	1	1	4	0	0	0	0	0	0	0	0	0	0	0	0	1	20
158.212890625	0.100004486675971	324020	167	0	stim00_sf1_pattern1_cont1_shape1.png	0	167	0	399.493583320356	399.593587807032	0.100004486675971	stim00_sf1_pattern1_cont1_shape1.png	1	1	1	1	1	3	0	0	0	0	0	0	0	0	0	0	0	0	1	20
158.712890625	0.100007125896809	325044	168	10	stim10_sf2_pattern1_cont2_shape1.png	0	168	0	399.993577015552	400.093584141448	0.100007125896809	stim10_sf2_pattern1_cont2_shape1.png	2	1	2	1	1	4	0	0	0	0	0	0	0	0	0	0	0	0	1	20
159.212890625	0.100004779922529	326068	169	3	stim03_sf1_pattern1_cont2_shape2.png	0	169	0	400.493570124252	400.593574904175	0.100004779922529	stim03_sf1_pattern1_cont2_shape2.png	1	1	2	2	1	2	0	0	0	0	0	0	0	0	0	0	0	0	1	20
159.712890625	0.0999971555065713	327092	170	11	stim11_sf2_pattern1_cont2_shape2.png	0	170	0	400.993571737108	401.093568892615	0.0999971555065713	stim11_sf2_pattern1_cont2_shape2.png	2	1	2	2	1	2	0	0	0	0	0	0	0	0	0	0	0	0	1	20
160.212890625	0.100010058366024	328116	171	2	stim02_sf1_pattern1_cont2_shape1.png	0	171	0	401.493548423989	401.593558482355	0.100010058366024	stim02_sf1_pattern1_cont2_shape1.png	1	1	2	1	1	4	0	0	0	0	0	0	0	0	0	0	0	0	1	20
222.26123046875	0.0999810269331647	455191	172	7	stim07_sf1_pattern2_cont2_shape2.png	1	0	0	463.542615943183	463.642596970116	0.0999810269331647	stim07_sf1_pattern2_cont2_shape2.png	1	2	2	2	1	2	0	0	0	0	0	0	0	0	0	0	0	0	1	20
222.76123046875	0.0999921703096334	456215	173	2	stim02_sf1_pattern1_cont2_shape1.png	1	1	0	464.042612570845	464.142604741155	0.0999921703096334	stim02_sf1_pattern1_cont2_shape1.png	1	1	2	1	1	4	0	0	0	0	0	0	0	0	0	0	0	0	1	20
223.26123046875	0.099959033423147	457239	174	14	stim14_sf2_pattern2_cont2_shape1.png	1	2	0	464.54260245383	464.642561487253	0.099959033423147	stim14_sf2_pattern2_cont2_shape1.png	2	2	2	1	1	4	0	0	0	0	0	0	0	0	0	0	0	0	1	20
223.76123046875	0.0999968622600136	458263	175	4	stim04_sf1_pattern2_cont1_shape1.png	1	3	0	465.042594976037	465.142591838297	0.0999968622600136	stim04_sf1_pattern2_cont1_shape1.png	1	2	1	1	1	3	0	0	0	0	0	0	0	0	0	0	0	0	1	20
224.26123046875	0.100006539403694	459287	176	6	stim06_sf1_pattern2_cont2_shape1.png	1	4	0	465.542583979282	465.642590518686	0.100006539403694	stim06_sf1_pattern2_cont2_shape1.png	1	2	2	1	1	4	0	0	0	0	0	0	0	0	0	0	0	0	1	20
224.76123046875	0.0999933432976832	460311	177	0	stim00_sf1_pattern1_cont1_shape1.png	1	5	0	466.042580900192	466.142574243489	0.0999933432976832	stim00_sf1_pattern1_cont1_shape1.png	1	1	1	1	1	3	0	0	0	0	0	0	0	0	0	0	0	0	1	20
225.26123046875	0.10000214070169	461335	178	15	stim15_sf2_pattern2_cont2_shape2.png	1	6	0	466.542571076423	466.642573217125	0.10000214070169	stim15_sf2_pattern2_cont2_shape2.png	2	2	2	2	1	2	0	0	0	0	0	0	0	0	0	0	0	0	1	20
225.76123046875	0.0999968622581946	462359	179	11	stim11_sf2_pattern1_cont2_shape2.png	1	7	0	467.042564478372	467.14256134063	0.0999968622581946	stim11_sf2_pattern1_cont2_shape2.png	2	1	2	2	1	2	0	0	0	0	0	0	0	0	0	0	0	0	1	20
226.26123046875	0.0999962757668982	463383	180	1	stim01_sf1_pattern1_cont1_shape2.png	1	8	0	467.542556707331	467.642552983098	0.0999962757668982	stim01_sf1_pattern1_cont1_shape2.png	1	1	1	2	1	1	0	0	0	0	0	0	0	0	0	0	0	0	1	20
226.76123046875	0.100008885377974	464407	181	3	stim03_sf1_pattern1_cont2_shape2.png	1	9	0	468.042536619925	468.142545505303	0.100008885377974	stim03_sf1_pattern1_cont2_shape2.png	1	1	2	2	1	2	0	0	0	0	0	0	0	0	0	0	0	0	1	20
227.26123046875	0.0999939297907986	465431	182	13	stim13_sf2_pattern2_cont1_shape2.png	1	10	0	468.542539992264	468.642533922055	0.0999939297907986	stim13_sf2_pattern2_cont1_shape2.png	2	2	1	2	1	1	0	0	0	0	0	0	0	0	0	0	0	0	1	20
227.76123046875	0.0999942230391753	466455	183	5	stim05_sf1_pattern2_cont1_shape2.png	1	11	0	469.04253808616	469.142532309199	0.0999942230391753	stim05_sf1_pattern2_cont1_shape2.png	1	2	1	2	1	1	0	0	0	0	0	0	0	0	0	0	0	0	1	20
228.26123046875	0.0999898243353528	467479	184	8	stim08_sf2_pattern1_cont1_shape1.png	1	12	0	469.542510081092	469.642499905427	0.0999898243353528	stim08_sf2_pattern1_cont1_shape1.png	2	1	1	1	1	3	0	0	0	0	0	0	0	0	0	0	0	0	1	20
228.76123046875	0.0999904108302871	468503	185	10	stim10_sf2_pattern1_cont2_shape1.png	1	13	0	470.042496151869	470.1424865627	0.0999904108302871	stim10_sf2_pattern1_cont2_shape1.png	2	1	2	1	1	4	0	0	0	0	0	0	0	0	0	0	0	0	1	20
229.26123046875	0.10000947187109	469527	186	9	stim09_sf2_pattern1_cont1_shape2.png	1	14	0	470.542475771217	470.642485243088	0.10000947187109	stim09_sf2_pattern1_cont1_shape2.png	2	1	1	2	1	1	0	0	0	0	0	0	0	0	0	0	0	0	1	20
229.76123046875	0.0999959825185215	470551	187	12	stim12_sf2_pattern2_cont1_shape1.png	1	15	0	471.04246037576	471.142456358279	0.0999959825185215	stim12_sf2_pattern2_cont1_shape1.png	2	2	1	1	1	3	0	0	0	0	0	0	0	0	0	0	0	0	1	20
230.26123046875	0.0999986217411788	471575	188	5	stim05_sf1_pattern2_cont1_shape2.png	1	16	0	471.542453484461	471.642452106202	0.0999986217411788	stim05_sf1_pattern2_cont1_shape2.png	1	2	1	2	1	1	0	0	0	0	0	0	0	0	0	0	0	0	1	20
230.76123046875	0.10000829888304	472599	189	9	stim09_sf2_pattern1_cont1_shape2.png	1	17	0	472.042452458098	472.142460756981	0.10000829888304	stim09_sf2_pattern1_cont1_shape2.png	2	1	1	2	1	1	0	0	0	0	0	0	0	0	0	0	0	0	1	20
231.26123046875	0.0989317899166053	473623	190	6	stim06_sf1_pattern2_cont2_shape1.png	1	18	0	472.543489525371	472.642421315288	0.0989317899166053	stim06_sf1_pattern2_cont2_shape1.png	1	2	2	1	1	4	0	0	0	0	0	0	0	0	0	0	0	0	1	20
231.76123046875	0.0999989149877365	474647	191	13	stim13_sf2_pattern2_cont1_shape2.png	1	19	1	473.042421373937	473.142420288925	0.0999989149877365	stim13_sf2_pattern2_cont1_shape2.png	2	2	1	2	1	1	0	0	0	0	0	0	0	0	0	0	0	0	1	20
232.26123046875	0.100033224862273	475671	192	13	stim13_sf2_pattern2_cont1_shape2.png	1	20	1	473.542451724979	473.642484949842	0.100033224862273	stim13_sf2_pattern2_cont1_shape2.png	2	2	1	2	1	1	0	0	0	0	0	0	0	0	0	0	0	0	1	20
232.76123046875	0.0999933432976832	476695	193	3	stim03_sf1_pattern1_cont2_shape2.png	1	21	2	474.042445713421	474.142439056719	0.0999933432976832	stim03_sf1_pattern1_cont2_shape2.png	1	1	2	2	1	2	0	0	0	0	0	0	0	0	0	0	0	0	1	20
233.26123046875	0.0999675375805964	477719	194	5	stim05_sf1_pattern2_cont1_shape2.png	1	22	2	474.542439115368	474.642406652949	0.0999675375805964	stim05_sf1_pattern2_cont1_shape2.png	1	2	1	2	1	1	0	0	0	0	0	0	0	0	0	0	0	0	1	20
233.76123046875	0.100050819668468	478743	195	13	stim13_sf2_pattern2_cont1_shape2.png	1	23	0	475.042392928999	475.142443748668	0.100050819668468	stim13_sf2_pattern2_cont1_shape2.png	2	2	1	2	1	1	0	0	0	0	0	0	0	0	0	0	0	0	1	20
234.2607421875	0.0999863053748413	479766	196	14	stim14_sf2_pattern2_cont2_shape1.png	1	24	0	475.542427678743	475.642413984118	0.0999863053748413	stim14_sf2_pattern2_cont2_shape1.png	2	2	2	1	1	4	0	0	0	0	0	0	0	0	0	0	0	0	1	20
234.7607421875	0.100003606936298	480790	197	1	stim01_sf1_pattern1_cont1_shape2.png	1	25	0	476.042416975235	476.142420582171	0.100003606936298	stim01_sf1_pattern1_cont1_shape2.png	1	1	1	2	1	1	0	0	0	0	0	0	0	0	0	0	0	0	1	20
235.2607421875	0.099994516285733	481814	198	10	stim10_sf2_pattern1_cont2_shape1.png	1	26	0	476.542421227314	476.642415743599	0.099994516285733	stim10_sf2_pattern1_cont2_shape1.png	2	1	2	1	1	4	0	0	0	0	0	0	0	0	0	0	0	0	1	20
235.7607421875	0.100017682781981	482838	199	7	stim07_sf1_pattern2_cont2_shape2.png	1	27	0	477.042401139908	477.14241882269	0.100017682781981	stim07_sf1_pattern2_cont2_shape2.png	1	2	2	2	1	2	0	0	0	0	0	0	0	0	0	0	0	0	1	20
236.2607421875	0.0999725227757153	483862	200	15	stim15_sf2_pattern2_cont2_shape2.png	1	28	0	477.542401286531	477.642373809307	0.0999725227757153	stim15_sf2_pattern2_cont2_shape2.png	2	2	2	2	1	2	0	0	0	0	0	0	0	0	0	0	0	0	1	20
236.7607421875	0.100008592131417	484886	201	12	stim12_sf2_pattern2_cont1_shape1.png	1	29	0	478.042386184323	478.142394776454	0.100008592131417	stim12_sf2_pattern2_cont1_shape1.png	2	2	1	1	1	3	0	0	0	0	0	0	0	0	0	0	0	0	1	20
237.2607421875	0.099997448753129	485910	202	4	stim04_sf1_pattern2_cont1_shape1.png	1	30	0	478.542386330946	478.642383779699	0.099997448753129	stim04_sf1_pattern2_cont1_shape1.png	1	2	1	1	1	3	0	0	0	0	0	0	0	0	0	0	0	0	1	20
237.7607421875	0.100005659662202	486934	203	8	stim08_sf2_pattern1_cont1_shape1.png	1	31	0	479.042365363801	479.142371023463	0.100005659662202	stim08_sf2_pattern1_cont1_shape1.png	2	1	1	1	1	3	0	0	0	0	0	0	0	0	0	0	0	0	1	20
238.2607421875	0.100012111091928	487958	204	11	stim11_sf2_pattern1_cont2_shape2.png	1	32	0	479.542359352241	479.642371463333	0.100012111091928	stim11_sf2_pattern1_cont2_shape2.png	2	1	2	2	1	2	0	0	0	0	0	0	0	0	0	0	0	0	1	20
238.7607421875	0.0999918770648947	488982	205	3	stim03_sf1_pattern1_cont2_shape2.png	1	33	0	480.042350408214	480.142342285279	0.0999918770648947	stim03_sf1_pattern1_cont2_shape2.png	1	1	2	2	1	2	0	0	0	0	0	0	0	0	0	0	0	0	1	20
239.2607421875	0.0999868918679567	490006	206	0	stim00_sf1_pattern1_cont1_shape1.png	1	34	0	480.542337651979	480.642324543847	0.0999868918679567	stim00_sf1_pattern1_cont1_shape1.png	1	1	1	1	1	3	0	0	0	0	0	0	0	0	0	0	0	0	1	20
239.7607421875	0.0999959825203405	491030	207	2	stim02_sf1_pattern1_cont2_shape1.png	1	35	0	481.042341904056	481.142337886577	0.0999959825203405	stim02_sf1_pattern1_cont2_shape1.png	1	1	2	1	1	4	0	0	0	0	0	0	0	0	0	0	0	0	1	20
240.2607421875	0.100000087973967	492054	208	15	stim15_sf2_pattern2_cont2_shape2.png	1	36	0	481.542342050681	481.642342138655	0.100000087973967	stim15_sf2_pattern2_cont2_shape2.png	2	2	2	2	1	2	0	0	0	0	0	0	0	0	0	0	0	0	1	20
240.7607421875	0.100010644857321	493078	209	7	stim07_sf1_pattern2_cont2_shape2.png	1	37	0	482.042316978081	482.142327622938	0.100010644857321	stim07_sf1_pattern2_cont2_shape2.png	1	2	2	2	1	2	0	0	0	0	0	0	0	0	0	0	0	0	1	20
241.2607421875	0.0999971555065713	494102	210	10	stim10_sf2_pattern1_cont2_shape1.png	1	38	0	482.542327681587	482.642324837094	0.0999971555065713	stim10_sf2_pattern1_cont2_shape1.png	2	1	2	1	1	4	0	0	0	0	0	0	0	0	0	0	0	0	1	20
241.7607421875	0.100004193427594	495126	211	11	stim11_sf2_pattern1_cont2_shape2.png	1	39	0	483.042300849507	483.142305042935	0.100004193427594	stim11_sf2_pattern1_cont2_shape2.png	2	1	2	2	1	2	0	0	0	0	0	0	0	0	0	0	0	0	1	20
242.2607421875	0.100000087973967	496150	212	8	stim08_sf2_pattern1_cont1_shape1.png	1	40	0	483.542311259767	483.642311347741	0.100000087973967	stim08_sf2_pattern1_cont1_shape1.png	2	1	1	1	1	3	0	0	0	0	0	0	0	0	0	0	0	0	1	20
242.7607421875	0.100028532911892	497174	213	12	stim12_sf2_pattern2_cont1_shape1.png	1	41	0	484.042261847684	484.142290380596	0.100028532911892	stim12_sf2_pattern2_cont1_shape1.png	2	2	1	1	1	3	0	0	0	0	0	0	0	0	0	0	0	0	1	20
243.2607421875	0.0999965690116369	498198	214	6	stim06_sf1_pattern2_cont2_shape1.png	1	42	0	484.542296890675	484.642293459687	0.0999965690116369	stim06_sf1_pattern2_cont2_shape1.png	1	2	2	1	1	4	0	0	0	0	0	0	0	0	0	0	0	0	1	20
243.7607421875	0.100040262783295	499222	215	9	stim09_sf2_pattern1_cont1_shape2.png	1	43	0	485.042236921707	485.14227718449	0.100040262783295	stim09_sf2_pattern1_cont1_shape2.png	2	1	1	2	1	1	0	0	0	0	0	0	0	0	0	0	0	0	1	20
244.2607421875	0.10000331368974	500246	216	1	stim01_sf1_pattern1_cont1_shape2.png	1	44	0	485.542252023915	485.642255337605	0.10000331368974	stim01_sf1_pattern1_cont1_shape2.png	1	1	1	2	1	1	0	0	0	0	0	0	0	0	0	0	0	0	1	20
244.7607421875	0.0999810269313457	501270	217	2	stim02_sf1_pattern1_cont2_shape1.png	1	45	0	486.042234282486	486.142215309417	0.0999810269313457	stim02_sf1_pattern1_cont2_shape1.png	1	1	2	1	1	4	0	0	0	0	0	0	0	0	0	0	0	0	1	20
245.2607421875	0.0999986217411788	502294	218	14	stim14_sf2_pattern2_cont2_shape1.png	1	46	0	486.542222405989	486.642221027731	0.0999986217411788	stim14_sf2_pattern2_cont2_shape1.png	2	2	2	1	1	4	0	0	0	0	0	0	0	0	0	0	0	0	1	20
245.7607421875	0.0999813201797224	503318	219	5	stim05_sf1_pattern2_cont1_shape2.png	1	47	0	487.042219620145	487.142200940325	0.0999813201797224	stim05_sf1_pattern2_cont1_shape2.png	1	2	1	2	1	1	0	0	0	0	0	0	0	0	0	0	0	0	1	20
246.2607421875	0.0999977419996867	504342	220	4	stim04_sf1_pattern2_cont1_shape1.png	1	48	0	487.54220862339	487.64220636539	0.0999977419996867	stim04_sf1_pattern2_cont1_shape1.png	1	2	1	1	1	3	0	0	0	0	0	0	0	0	0	0	0	0	1	20
246.7607421875	0.099972816022273	505366	221	13	stim13_sf2_pattern2_cont1_shape2.png	1	49	0	488.042223139108	488.14219595513	0.099972816022273	stim13_sf2_pattern2_cont1_shape2.png	2	2	1	2	1	1	0	0	0	0	0	0	0	0	0	0	0	0	1	20
247.2607421875	0.0999951027788484	506390	222	3	stim03_sf1_pattern1_cont2_shape2.png	1	50	0	488.542245279239	488.642240382018	0.0999951027788484	stim03_sf1_pattern1_cont2_shape2.png	1	1	2	2	1	2	0	0	0	0	0	0	0	0	0	0	0	0	1	20
247.7607421875	0.100004193429413	507414	223	0	stim00_sf1_pattern1_cont1_shape1.png	1	51	0	489.042210529495	489.142214722924	0.100004193429413	stim00_sf1_pattern1_cont1_shape1.png	1	1	1	1	1	3	0	0	0	0	0	0	0	0	0	0	0	0	1	20
248.2607421875	0.0999904108302871	508438	224	15	stim15_sf2_pattern2_cont2_shape2.png	1	52	0	489.542210676118	489.642201086948	0.0999904108302871	stim15_sf2_pattern2_cont2_shape2.png	2	2	2	2	1	2	0	0	0	0	0	0	0	0	0	0	0	0	1	20
248.7607421875	0.0999804404400493	509462	225	13	stim13_sf2_pattern2_cont1_shape2.png	1	53	1	490.042196746896	490.142177187336	0.0999804404400493	stim13_sf2_pattern2_cont1_shape2.png	2	2	1	2	1	1	0	0	0	0	0	0	0	0	0	0	0	0	1	20
249.2607421875	0.100002727194806	510486	226	13	stim13_sf2_pattern2_cont1_shape2.png	1	54	1	490.542209503132	490.642212230327	0.100002727194806	stim13_sf2_pattern2_cont1_shape2.png	2	2	1	2	1	1	0	0	0	0	0	0	0	0	0	0	0	0	1	20
249.7607421875	0.0999780944639497	511510	227	8	stim08_sf2_pattern1_cont1_shape1.png	1	55	2	491.042202318586	491.14218041305	0.0999780944639497	stim08_sf2_pattern1_cont1_shape1.png	2	1	1	1	1	3	0	0	0	0	0	0	0	0	0	0	0	0	1	20
250.2607421875	0.10001416382147	512534	228	4	stim04_sf1_pattern2_cont1_shape1.png	1	56	2	491.542190442089	491.642204605911	0.10001416382147	stim04_sf1_pattern2_cont1_shape1.png	1	2	1	1	1	3	0	0	0	0	0	0	0	0	0	0	0	0	1	20
250.7607421875	0.0999997947255906	513558	229	2	stim02_sf1_pattern1_cont2_shape1.png	1	57	0	492.042183844038	492.142183638764	0.0999997947255906	stim02_sf1_pattern1_cont2_shape1.png	1	1	2	1	1	4	0	0	0	0	0	0	0	0	0	0	0	0	1	20
251.2607421875	0.099989531088795	514582	230	4	stim04_sf1_pattern2_cont1_shape1.png	1	58	0	492.542186336635	492.642175867724	0.099989531088795	stim04_sf1_pattern2_cont1_shape1.png	1	2	1	1	1	3	0	0	0	0	0	0	0	0	0	0	0	0	1	20
251.76025390625	0.100015923300816	515605	231	6	stim06_sf1_pattern2_cont2_shape1.png	1	59	0	493.042170354685	493.142186277986	0.100015923300816	stim06_sf1_pattern2_cont2_shape1.png	1	2	2	1	1	4	0	0	0	0	0	0	0	0	0	0	0	0	1	20
252.26025390625	0.0999707632963691	516629	232	14	stim14_sf2_pattern2_cont2_shape1.png	1	60	0	493.542162583644	493.642133346941	0.0999707632963691	stim14_sf2_pattern2_cont2_shape1.png	2	2	2	1	1	4	0	0	0	0	0	0	0	0	0	0	0	0	1	20
252.76025390625	0.100007125896809	517653	233	5	stim05_sf1_pattern2_cont1_shape2.png	1	61	0	494.042137511044	494.14214463694	0.100007125896809	stim05_sf1_pattern2_cont1_shape2.png	1	2	1	2	1	1	0	0	0	0	0	0	0	0	0	0	0	0	1	20
253.26025390625	0.0999968622581946	518677	234	0	stim00_sf1_pattern1_cont1_shape1.png	1	62	0	494.542144988838	494.642141851096	0.0999968622581946	stim00_sf1_pattern1_cont1_shape1.png	1	1	1	1	1	3	0	0	0	0	0	0	0	0	0	0	0	0	1	20
253.7685546875	0.100006539403694	519718	235	7	stim07_sf1_pattern2_cont2_shape2.png	1	63	0	495.050462200928	495.150468740332	0.100006539403694	stim07_sf1_pattern2_cont2_shape2.png	1	2	2	2	1	2	0	0	0	0	0	0	0	0	0	0	0	0	1	20
254.2685546875	0.100006246157136	520742	236	3	stim03_sf1_pattern1_cont2_shape2.png	1	64	0	495.550467332747	495.650473578904	0.100006246157136	stim03_sf1_pattern1_cont2_shape2.png	1	1	2	2	1	2	0	0	0	0	0	0	0	0	0	0	0	0	1	20
254.7685546875	0.100052579149633	521766	237	9	stim09_sf2_pattern1_cont1_shape2.png	1	65	0	496.050390355465	496.150442934615	0.100052579149633	stim09_sf2_pattern1_cont1_shape2.png	2	1	1	2	1	1	0	0	0	0	0	0	0	0	0	0	0	0	1	20
255.2685546875	0.0999939297926176	522790	238	8	stim08_sf2_pattern1_cont1_shape1.png	1	66	0	496.550451204173	496.650445133966	0.0999939297926176	stim08_sf2_pattern1_cont1_shape1.png	2	1	1	1	1	3	0	0	0	0	0	0	0	0	0	0	0	0	1	20
255.7685546875	0.0999942230391753	523814	239	11	stim11_sf2_pattern1_cont2_shape2.png	1	67	0	497.050435808716	497.150430031756	0.0999942230391753	stim11_sf2_pattern1_cont2_shape2.png	2	1	2	2	1	2	0	0	0	0	0	0	0	0	0	0	0	0	1	20
256.2685546875	0.0999959825203405	524838	240	10	stim10_sf2_pattern1_cont2_shape1.png	1	68	0	497.55041953352	497.65041551604	0.0999959825203405	stim10_sf2_pattern1_cont2_shape1.png	2	1	2	1	1	4	0	0	0	0	0	0	0	0	0	0	0	0	1	20
256.7685546875	0.0999995014790329	525862	241	1	stim01_sf1_pattern1_cont1_shape2.png	1	69	0	498.05042466534	498.150424166819	0.0999995014790329	stim01_sf1_pattern1_cont1_shape2.png	1	1	1	2	1	1	0	0	0	0	0	0	0	0	0	0	0	0	1	20
257.2685546875	0.100000674467083	526886	242	13	stim13_sf2_pattern2_cont1_shape2.png	1	70	0	498.55041777404	498.650418448507	0.100000674467083	stim13_sf2_pattern2_cont1_shape2.png	2	2	1	2	1	1	0	0	0	0	0	0	0	0	0	0	0	0	1	20
257.7685546875	0.0999572739438008	527910	243	12	stim12_sf2_pattern2_cont1_shape1.png	1	71	0	499.050412055727	499.150369329671	0.0999572739438008	stim12_sf2_pattern2_cont1_shape1.png	2	2	1	1	1	3	0	0	0	0	0	0	0	0	0	0	0	0	1	20
258.2685546875	0.100002433948248	528934	244	15	stim15_sf2_pattern2_cont2_shape2.png	1	72	0	499.550395487284	499.650397921232	0.100002433948248	stim15_sf2_pattern2_cont2_shape2.png	2	2	2	2	1	2	0	0	0	0	0	0	0	0	0	0	0	0	1	20
258.77685546875	0.100000087973967	529975	245	12	stim12_sf2_pattern2_cont1_shape1.png	1	73	0	500.058710646646	500.15871073462	0.100000087973967	stim12_sf2_pattern2_cont1_shape1.png	2	2	1	1	1	3	0	0	0	0	0	0	0	0	0	0	0	0	1	20
259.27685546875	0.0999745755034382	530999	246	13	stim13_sf2_pattern2_cont1_shape2.png	1	74	0	500.558727508338	500.658702083841	0.0999745755034382	stim13_sf2_pattern2_cont1_shape2.png	2	2	1	2	1	1	0	0	0	0	0	0	0	0	0	0	0	0	1	20
259.77685546875	0.10000096771364	532023	247	8	stim08_sf2_pattern1_cont1_shape1.png	1	75	0	501.058718564311	501.158719532024	0.10000096771364	stim08_sf2_pattern1_cont1_shape1.png	2	1	1	1	1	3	0	0	0	0	0	0	0	0	0	0	0	0	1	20
260.27685546875	0.100007125896809	533047	248	0	stim00_sf1_pattern1_cont1_shape1.png	1	76	0	501.558695544438	501.658702670335	0.100007125896809	stim00_sf1_pattern1_cont1_shape1.png	1	1	1	1	1	3	0	0	0	0	0	0	0	0	0	0	0	0	1	20
260.77685546875	0.0999487697845325	534071	249	11	stim11_sf2_pattern1_cont2_shape2.png	1	77	0	502.058720323792	502.158669093576	0.0999487697845325	stim11_sf2_pattern1_cont2_shape2.png	2	1	2	2	1	2	0	0	0	0	0	0	0	0	0	0	0	0	1	20
261.27685546875	0.100002727194806	535095	250	3	stim03_sf1_pattern1_cont2_shape2.png	1	78	1	502.558696424177	502.658699151372	0.100002727194806	stim03_sf1_pattern1_cont2_shape2.png	1	1	2	2	1	2	0	0	0	0	0	0	0	0	0	0	0	0	1	20
261.77685546875	0.100012111093747	536119	251	3	stim03_sf1_pattern1_cont2_shape2.png	1	79	1	503.058669005602	503.158681116696	0.100012111093747	stim03_sf1_pattern1_cont2_shape2.png	1	1	2	2	1	2	0	0	0	0	0	0	0	0	0	0	0	0	1	20
262.27685546875	0.100009178624532	537143	252	2	stim02_sf1_pattern1_cont2_shape1.png	1	80	2	503.558664167031	503.658673345655	0.100009178624532	stim02_sf1_pattern1_cont2_shape1.png	1	1	2	1	1	4	0	0	0	0	0	0	0	0	0	0	0	0	1	20
262.77685546875	0.0999959825185215	538167	253	6	stim06_sf1_pattern2_cont2_shape1.png	1	81	2	504.058666659628	504.158662642147	0.0999959825185215	stim06_sf1_pattern2_cont2_shape1.png	1	2	2	1	1	4	0	0	0	0	0	0	0	0	0	0	0	0	1	20
263.27685546875	0.0999983284928021	539191	254	5	stim05_sf1_pattern2_cont1_shape2.png	1	82	0	504.558658595342	504.658656923835	0.0999983284928021	stim05_sf1_pattern2_cont1_shape2.png	1	2	1	2	1	1	0	0	0	0	0	0	0	0	0	0	0	0	1	20
263.77685546875	0.0999918770630757	540215	255	9	stim09_sf2_pattern1_cont1_shape2.png	1	83	0	505.058656102745	505.158647979808	0.0999918770630757	stim09_sf2_pattern1_cont1_shape2.png	2	1	1	2	1	1	0	0	0	0	0	0	0	0	0	0	0	0	1	20
264.27685546875	0.100020615249377	541239	256	7	stim07_sf1_pattern2_cont2_shape2.png	1	84	0	505.558620766506	505.658641381755	0.100020615249377	stim07_sf1_pattern2_cont2_shape2.png	1	2	2	2	1	2	0	0	0	0	0	0	0	0	0	0	0	0	1	20
264.77685546875	0.100025013951381	542263	257	14	stim14_sf2_pattern2_cont2_shape1.png	1	85	0	506.058620033389	506.158645047341	0.100025013951381	stim14_sf2_pattern2_cont2_shape1.png	2	2	2	1	1	4	0	0	0	0	0	0	0	0	0	0	0	0	1	20
265.27685546875	0.100012990831601	543287	258	2	stim02_sf1_pattern1_cont2_shape1.png	1	86	0	506.558615194817	506.658628185649	0.100012990831601	stim02_sf1_pattern1_cont2_shape1.png	1	1	2	1	1	4	0	0	0	0	0	0	0	0	0	0	0	0	1	20
265.77685546875	0.099994516283914	544311	259	10	stim10_sf2_pattern1_cont2_shape1.png	1	87	0	507.058624138845	507.158618655129	0.099994516283914	stim10_sf2_pattern1_cont2_shape1.png	2	1	2	1	1	4	0	0	0	0	0	0	0	0	0	0	0	0	1	20
266.27685546875	0.100003020441363	545335	260	3	stim03_sf1_pattern1_cont2_shape2.png	1	88	0	507.558596427023	507.658599447464	0.100003020441363	stim03_sf1_pattern1_cont2_shape2.png	1	1	2	2	1	2	0	0	0	0	0	0	0	0	0	0	0	0	1	20
266.77685546875	0.0999971555065713	546359	261	6	stim06_sf1_pattern2_cont2_shape1.png	1	89	0	508.058606544037	508.158603699543	0.0999971555065713	stim06_sf1_pattern2_cont2_shape1.png	1	2	2	1	1	4	0	0	0	0	0	0	0	0	0	0	0	0	1	20
267.27685546875	0.100002433948248	547383	262	4	stim04_sf1_pattern2_cont1_shape1.png	1	90	0	508.558581764682	508.658584198631	0.100002433948248	stim04_sf1_pattern2_cont1_shape1.png	1	2	1	1	1	3	0	0	0	0	0	0	0	0	0	0	0	0	1	20
267.77685546875	0.0999959825185215	548407	263	1	stim01_sf1_pattern1_cont1_shape2.png	1	91	0	509.058592468191	509.158588450709	0.0999959825185215	stim01_sf1_pattern1_cont1_shape2.png	1	1	1	2	1	1	0	0	0	0	0	0	0	0	0	0	0	0	1	20
268.27685546875	0.100007125896809	549431	264	7	stim07_sf1_pattern2_cont2_shape2.png	1	92	0	509.558560650914	509.658567776811	0.100007125896809	stim07_sf1_pattern2_cont2_shape2.png	1	2	2	2	1	2	0	0	0	0	0	0	0	0	0	0	0	0	1	20
268.78515625	0.0988886826380622	550472	265	9	stim09_sf2_pattern1_cont1_shape2.png	1	93	0	510.059681293524	510.158569976162	0.0988886826380622	stim09_sf2_pattern1_cont1_shape2.png	2	1	1	2	1	1	0	0	0	0	0	0	0	0	0	0	0	0	1	20
269.27685546875	0.099953168486536	551479	266	3	stim03_sf1_pattern1_cont2_shape2.png	1	94	0	510.558555372472	510.658508540959	0.099953168486536	stim03_sf1_pattern1_cont2_shape2.png	1	1	2	2	1	2	0	0	0	0	0	0	0	0	0	0	0	0	1	20
269.77685546875	0.0999602064111969	552503	267	4	stim04_sf1_pattern2_cont1_shape1.png	1	95	0	511.058581324813	511.158541531224	0.0999602064111969	stim04_sf1_pattern2_cont1_shape1.png	1	2	1	1	1	3	0	0	0	0	0	0	0	0	0	0	0	0	1	20
270.27685546875	0.100062842786429	553527	268	15	stim15_sf2_pattern2_cont2_shape2.png	1	96	0	511.558495843374	511.65855868616	0.100062842786429	stim15_sf2_pattern2_cont2_shape2.png	2	2	2	2	1	2	0	0	0	0	0	0	0	0	0	0	0	0	1	20
270.77685546875	0.0999977419996867	554551	269	2	stim02_sf1_pattern1_cont2_shape1.png	1	97	0	512.058526780909	512.158524522909	0.0999977419996867	stim02_sf1_pattern1_cont2_shape1.png	1	1	2	1	1	4	0	0	0	0	0	0	0	0	0	0	0	0	1	20
271.2763671875	0.0999874783610721	555574	270	11	stim11_sf2_pattern1_cont2_shape2.png	1	98	0	512.558516370649	512.65850384901	0.0999874783610721	stim11_sf2_pattern1_cont2_shape2.png	2	1	2	2	1	2	0	0	0	0	0	0	0	0	0	0	0	0	1	20
271.7763671875	0.100025013951381	556598	271	8	stim08_sf2_pattern1_cont1_shape1.png	1	99	0	513.058493644023	513.158518657974	0.100025013951381	stim08_sf2_pattern1_cont1_shape1.png	2	1	1	1	1	3	0	0	0	0	0	0	0	0	0	0	0	0	1	20
272.2763671875	0.100008005636482	557622	272	13	stim13_sf2_pattern2_cont1_shape2.png	1	100	0	513.558490858179	513.658498863815	0.100008005636482	stim13_sf2_pattern2_cont1_shape2.png	2	2	1	2	1	1	0	0	0	0	0	0	0	0	0	0	0	0	1	20
272.7763671875	0.100032931615715	558646	273	0	stim00_sf1_pattern1_cont1_shape1.png	1	101	0	514.05848103441	514.158513966026	0.100032931615715	stim00_sf1_pattern1_cont1_shape1.png	1	1	1	1	1	3	0	0	0	0	0	0	0	0	0	0	0	0	1	20
273.2763671875	0.099983666154003	559670	274	14	stim14_sf2_pattern2_cont2_shape1.png	1	102	0	514.558491737918	514.658475404072	0.099983666154003	stim14_sf2_pattern2_cont2_shape1.png	2	2	2	1	1	4	0	0	0	0	0	0	0	0	0	0	0	0	1	20
273.7763671875	0.0999411453685752	560694	275	10	stim10_sf2_pattern1_cont2_shape1.png	1	103	0	515.058515051038	515.158456196406	0.0999411453685752	stim10_sf2_pattern1_cont2_shape1.png	2	1	2	1	1	4	0	0	0	0	0	0	0	0	0	0	0	0	1	20
274.2763671875	0.0999710565429268	561718	276	6	stim06_sf1_pattern2_cont2_shape1.png	1	104	0	515.558483233761	515.658454290304	0.0999710565429268	stim06_sf1_pattern2_cont2_shape1.png	1	2	2	1	1	4	0	0	0	0	0	0	0	0	0	0	0	0	1	20
274.7763671875	0.0999877716076298	562742	277	1	stim01_sf1_pattern1_cont1_shape2.png	1	105	0	516.058500388699	516.158488160307	0.0999877716076298	stim01_sf1_pattern1_cont1_shape2.png	1	1	1	2	1	1	0	0	0	0	0	0	0	0	0	0	0	0	1	20
275.2763671875	0.0999464238120709	563766	278	5	stim05_sf1_pattern2_cont1_shape2.png	1	106	0	516.558492031165	516.658438454977	0.0999464238120709	stim05_sf1_pattern2_cont1_shape2.png	1	2	1	2	1	1	0	0	0	0	0	0	0	0	0	0	0	0	1	20
275.7763671875	0.0999986217411788	564790	279	12	stim12_sf2_pattern2_cont1_shape1.png	1	107	0	517.058469597785	517.158468219526	0.0999986217411788	stim12_sf2_pattern2_cont1_shape1.png	2	2	1	1	1	3	0	0	0	0	0	0	0	0	0	0	0	0	1	20
276.2763671875	0.100010938105697	565814	280	10	stim10_sf2_pattern1_cont2_shape1.png	1	108	0	517.558451269861	517.658462207966	0.100010938105697	stim10_sf2_pattern1_cont2_shape1.png	2	1	2	1	1	4	0	0	0	0	0	0	0	0	0	0	0	0	1	20
276.7763671875	0.0999997947274096	566838	281	13	stim13_sf2_pattern2_cont1_shape2.png	1	109	0	518.058472237006	518.158472031733	0.0999997947274096	stim13_sf2_pattern2_cont1_shape2.png	2	2	1	2	1	1	0	0	0	0	0	0	0	0	0	0	0	0	1	20
277.2763671875	0.099997448753129	567862	282	3	stim03_sf1_pattern1_cont2_shape2.png	1	110	0	518.558447457654	518.658444906407	0.099997448753129	stim03_sf1_pattern1_cont2_shape2.png	1	1	2	2	1	2	0	0	0	0	0	0	0	0	0	0	0	0	1	20
277.7763671875	0.0999951027770294	568886	283	14	stim14_sf2_pattern2_cont2_shape1.png	1	111	0	519.058442912328	519.158438015105	0.0999951027770294	stim14_sf2_pattern2_cont2_shape1.png	2	2	2	1	1	4	0	0	0	0	0	0	0	0	0	0	0	0	1	20
278.2763671875	0.0999992082324752	569910	284	1	stim01_sf1_pattern1_cont1_shape2.png	1	112	0	519.558429569599	519.658428777831	0.0999992082324752	stim01_sf1_pattern1_cont1_shape2.png	1	1	1	2	1	1	0	0	0	0	0	0	0	0	0	0	0	0	1	20
278.78466796875	0.099994516285733	570951	285	0	stim00_sf1_pattern1_cont1_shape1.png	1	113	0	520.06674033026	520.166734846545	0.099994516285733	stim00_sf1_pattern1_cont1_shape1.png	1	1	1	1	1	3	0	0	0	0	0	0	0	0	0	0	0	0	1	20
279.28466796875	0.100007125896809	571975	286	15	stim15_sf2_pattern2_cont2_shape2.png	1	114	0	520.566733732208	520.666740858105	0.100007125896809	stim15_sf2_pattern2_cont2_shape2.png	2	2	2	2	1	2	0	0	0	0	0	0	0	0	0	0	0	0	1	20
279.78466796875	0.0999983284928021	572999	287	11	stim11_sf2_pattern1_cont2_shape2.png	1	115	0	521.066749127664	521.166747456156	0.0999983284928021	stim11_sf2_pattern1_cont2_shape2.png	2	1	2	2	1	2	0	0	0	0	0	0	0	0	0	0	0	0	1	20
280.28466796875	0.100001260962017	574023	288	5	stim05_sf1_pattern2_cont1_shape2.png	1	116	0	521.566728453765	521.666729714727	0.100001260962017	stim05_sf1_pattern2_cont1_shape2.png	1	2	1	2	1	1	0	0	0	0	0	0	0	0	0	0	0	0	1	20
280.78466796875	0.0999863053748413	575047	289	4	stim04_sf1_pattern2_cont1_shape1.png	1	117	0	522.066740623508	522.166726928883	0.0999863053748413	stim04_sf1_pattern2_cont1_shape1.png	1	2	1	1	1	3	0	0	0	0	0	0	0	0	0	0	0	0	1	20
281.28466796875	0.0999939297907986	576071	290	9	stim09_sf2_pattern1_cont1_shape2.png	1	118	0	522.56672346857	522.666717398361	0.0999939297907986	stim09_sf2_pattern1_cont1_shape2.png	2	1	1	2	1	1	0	0	0	0	0	0	0	0	0	0	0	0	1	20
281.78466796875	0.100025307197939	577095	291	12	stim12_sf2_pattern2_cont1_shape1.png	1	119	0	523.066698102723	523.16672340992	0.100025307197939	stim12_sf2_pattern2_cont1_shape1.png	2	2	1	1	1	3	0	0	0	0	0	0	0	0	0	0	0	0	1	20
282.28466796875	0.0999942230391753	578119	292	7	stim07_sf1_pattern2_cont2_shape2.png	1	120	0	523.566707633243	523.666701856282	0.0999942230391753	stim07_sf1_pattern2_cont2_shape2.png	1	2	2	2	1	2	0	0	0	0	0	0	0	0	0	0	0	0	1	20
282.78466796875	0.0999939297907986	579143	293	6	stim06_sf1_pattern2_cont2_shape1.png	1	121	0	524.066703967659	524.16669789745	0.0999939297907986	stim06_sf1_pattern2_cont2_shape1.png	1	2	2	1	1	4	0	0	0	0	0	0	0	0	0	0	0	0	1	20
283.28466796875	0.0999707632945501	580167	294	8	stim08_sf2_pattern1_cont1_shape1.png	1	122	0	524.56669062493	524.666661388224	0.0999707632945501	stim08_sf2_pattern1_cont1_shape1.png	2	1	1	1	1	3	0	0	0	0	0	0	0	0	0	0	0	0	1	20
283.78466796875	0.100008298884859	581191	295	2	stim02_sf1_pattern1_cont2_shape1.png	1	123	0	525.066670830771	525.166679129656	0.100008298884859	stim02_sf1_pattern1_cont2_shape1.png	1	1	2	1	1	4	0	0	0	0	0	0	0	0	0	0	0	0	1	20
284.28466796875	0.0999986217411788	582215	296	13	stim13_sf2_pattern2_cont1_shape2.png	1	124	0	525.566675962589	525.66667458433	0.0999986217411788	stim13_sf2_pattern2_cont1_shape2.png	2	2	1	2	1	1	0	0	0	0	0	0	0	0	0	0	0	0	1	20
284.78466796875	0.0999951027770294	583239	297	7	stim07_sf1_pattern2_cont2_shape2.png	1	125	0	526.066669657785	526.166664760562	0.0999951027770294	stim07_sf1_pattern2_cont2_shape2.png	1	2	2	2	1	2	0	0	0	0	0	0	0	0	0	0	0	0	1	20
285.28466796875	0.0999816134262801	584263	298	12	stim12_sf2_pattern2_cont1_shape1.png	1	126	0	526.566637840508	526.666619453934	0.0999816134262801	stim12_sf2_pattern2_cont1_shape1.png	2	2	1	1	1	3	0	0	0	0	0	0	0	0	0	0	0	0	1	20
285.78466796875	0.100003606934479	585287	299	4	stim04_sf1_pattern2_cont1_shape1.png	1	127	0	527.066646784535	527.166650391469	0.100003606934479	stim04_sf1_pattern2_cont1_shape1.png	1	2	1	1	1	3	0	0	0	0	0	0	0	0	0	0	0	0	1	20
286.28466796875	0.0999965690134559	586311	300	15	stim15_sf2_pattern2_cont2_shape2.png	1	128	0	527.566646051417	527.66664262043	0.0999965690134559	stim15_sf2_pattern2_cont2_shape2.png	2	2	2	2	1	2	0	0	0	0	0	0	0	0	0	0	0	0	1	20
286.78466796875	0.100009178624532	587335	301	0	stim00_sf1_pattern1_cont1_shape1.png	1	129	0	528.066627723492	528.166636902117	0.100009178624532	stim00_sf1_pattern1_cont1_shape1.png	1	1	1	1	1	3	0	0	0	0	0	0	0	0	0	0	0	0	1	20
287.28466796875	0.0999792674519995	588359	302	2	stim02_sf1_pattern1_cont2_shape1.png	1	130	0	528.566629629597	528.666608897049	0.0999792674519995	stim02_sf1_pattern1_cont2_shape1.png	1	1	2	1	1	4	0	0	0	0	0	0	0	0	0	0	0	0	1	20
287.78466796875	0.100007712389925	589383	303	11	stim11_sf2_pattern1_cont2_shape2.png	1	131	0	529.066608075958	529.166615788348	0.100007712389925	stim11_sf2_pattern1_cont2_shape2.png	2	1	2	2	1	2	0	0	0	0	0	0	0	0	0	0	0	0	1	20
288.28466796875	0.0999959825185215	590407	304	5	stim05_sf1_pattern2_cont1_shape2.png	1	132	0	529.566617899725	529.666613882244	0.0999959825185215	stim05_sf1_pattern2_cont1_shape2.png	1	2	1	2	1	1	0	0	0	0	0	0	0	0	0	0	0	0	1	20
288.78466796875	0.100010938105697	591431	305	6	stim06_sf1_pattern2_cont2_shape1.png	1	133	0	530.066588428423	530.166599366528	0.100010938105697	stim06_sf1_pattern2_cont2_shape1.png	1	2	2	1	1	4	0	0	0	0	0	0	0	0	0	0	0	0	1	20
289.28466796875	0.100006539403694	592455	306	1	stim01_sf1_pattern1_cont1_shape2.png	1	134	0	530.566590627774	530.666597167177	0.100006539403694	stim01_sf1_pattern1_cont1_shape2.png	1	1	1	2	1	1	0	0	0	0	0	0	0	0	0	0	0	0	1	20
289.78466796875	0.100009765119466	593479	307	9	stim09_sf2_pattern1_cont1_shape2.png	1	135	0	531.066559103743	531.166568868863	0.100009765119466	stim09_sf2_pattern1_cont1_shape2.png	2	1	1	2	1	1	0	0	0	0	0	0	0	0	0	0	0	0	1	20
290.2841796875	0.0999968622600136	594502	308	14	stim14_sf2_pattern2_cont2_shape1.png	1	136	0	531.566547813742	531.666544676002	0.0999968622600136	stim14_sf2_pattern2_cont2_shape1.png	2	2	2	1	1	4	0	0	0	0	0	0	0	0	0	0	0	0	1	20
290.7841796875	0.100001554208575	595526	309	3	stim03_sf1_pattern1_cont2_shape2.png	1	137	0	532.066523914129	532.166525468338	0.100001554208575	stim03_sf1_pattern1_cont2_shape2.png	1	1	2	2	1	2	0	0	0	0	0	0	0	0	0	0	0	0	1	20
291.2841796875	0.0999968622600136	596550	310	8	stim08_sf2_pattern1_cont1_shape1.png	1	138	0	532.566517609323	532.666514471583	0.0999968622600136	stim08_sf2_pattern1_cont1_shape1.png	2	1	1	1	1	3	0	0	0	0	0	0	0	0	0	0	0	0	1	20
291.7841796875	0.100002727194806	597574	311	10	stim10_sf2_pattern1_cont2_shape1.png	1	139	0	533.066505439581	533.166508166776	0.100002727194806	stim10_sf2_pattern1_cont2_shape1.png	2	1	2	1	1	4	0	0	0	0	0	0	0	0	0	0	0	0	1	20
292.2841796875	0.099997448753129	598598	312	6	stim06_sf1_pattern2_cont2_shape1.png	1	140	0	533.5665105714	533.666508020153	0.099997448753129	stim06_sf1_pattern2_cont2_shape1.png	1	2	2	1	1	4	0	0	0	0	0	0	0	0	0	0	0	0	1	20
292.7841796875	0.10000096771364	599622	313	1	stim01_sf1_pattern1_cont1_shape2.png	1	141	0	534.066503386854	534.166504354567	0.10000096771364	stim01_sf1_pattern1_cont1_shape2.png	1	1	1	2	1	1	0	0	0	0	0	0	0	0	0	0	0	0	1	20
293.2841796875	0.0999951027788484	600646	314	11	stim11_sf2_pattern1_cont2_shape2.png	1	142	0	534.566528166208	534.666523268987	0.0999951027788484	stim11_sf2_pattern1_cont2_shape2.png	2	1	2	2	1	2	0	0	0	0	0	0	0	0	0	0	0	0	1	20
293.7841796875	0.10001416382147	601670	315	2	stim02_sf1_pattern1_cont2_shape1.png	1	143	0	535.066506319321	535.166520483142	0.10001416382147	stim02_sf1_pattern1_cont2_shape1.png	1	1	2	1	1	4	0	0	0	0	0	0	0	0	0	0	0	0	1	20
294.2841796875	0.0999804404382303	602694	316	14	stim14_sf2_pattern2_cont2_shape1.png	1	144	0	535.566514383609	535.666494824047	0.0999804404382303	stim14_sf2_pattern2_cont2_shape1.png	2	2	2	1	1	4	0	0	0	0	0	0	0	0	0	0	0	0	1	20
294.7841796875	0.1000299991465	603718	317	12	stim12_sf2_pattern2_cont1_shape1.png	1	145	0	536.066484619059	536.166514618206	0.1000299991465	stim12_sf2_pattern2_cont1_shape1.png	2	2	1	1	1	3	0	0	0	0	0	0	0	0	0	0	0	0	1	20
295.2841796875	0.100003606936298	604742	318	5	stim05_sf1_pattern2_cont1_shape2.png	1	146	0	536.566515263348	536.666518870285	0.100003606936298	stim05_sf1_pattern2_cont1_shape2.png	1	2	1	2	1	1	0	0	0	0	0	0	0	0	0	0	0	0	1	20
295.7841796875	0.0999983284928021	605766	319	13	stim13_sf2_pattern2_cont1_shape2.png	1	147	0	537.06646438503	537.166462713523	0.0999983284928021	stim13_sf2_pattern2_cont1_shape2.png	2	2	1	2	1	1	0	0	0	0	0	0	0	0	0	0	0	0	1	20
296.2841796875	0.0999953960254061	606790	320	3	stim03_sf1_pattern1_cont2_shape2.png	1	148	0	537.566496495554	537.666491891579	0.0999953960254061	stim03_sf1_pattern1_cont2_shape2.png	1	1	2	2	1	2	0	0	0	0	0	0	0	0	0	0	0	0	1	20
296.7841796875	0.100006832650251	607814	321	10	stim10_sf2_pattern1_cont2_shape1.png	1	149	0	538.066470543214	538.166477375864	0.100006832650251	stim10_sf2_pattern1_cont2_shape1.png	2	1	2	1	1	4	0	0	0	0	0	0	0	0	0	0	0	0	1	20
297.2841796875	0.0999851323867915	608838	322	0	stim00_sf1_pattern1_cont1_shape1.png	1	150	0	538.566492976594	538.66647810898	0.0999851323867915	stim00_sf1_pattern1_cont1_shape1.png	1	1	1	1	1	3	0	0	0	0	0	0	0	0	0	0	0	0	1	20
297.7841796875	0.0999901175837294	609862	323	8	stim08_sf2_pattern1_cont1_shape1.png	1	151	0	539.066459986328	539.166450103912	0.0999901175837294	stim08_sf2_pattern1_cont1_shape1.png	2	1	1	1	1	3	0	0	0	0	0	0	0	0	0	0	0	0	1	20
298.2841796875	0.0999956892719638	610886	324	7	stim07_sf1_pattern2_cont2_shape2.png	1	152	0	539.566465118147	539.666460807419	0.0999956892719638	stim07_sf1_pattern2_cont2_shape2.png	1	2	2	2	1	2	0	0	0	0	0	0	0	0	0	0	0	0	1	20
298.7841796875	0.0999775079708343	611910	325	4	stim04_sf1_pattern2_cont1_shape1.png	1	153	0	540.066457640354	540.166435148325	0.0999775079708343	stim04_sf1_pattern2_cont1_shape1.png	1	2	1	1	1	3	0	0	0	0	0	0	0	0	0	0	0	0	1	20
299.2841796875	0.0999833729074453	612934	326	9	stim09_sf2_pattern1_cont1_shape2.png	1	154	0	540.566468637109	540.666452010017	0.0999833729074453	stim09_sf2_pattern1_cont1_shape2.png	2	1	1	2	1	1	0	0	0	0	0	0	0	0	0	0	0	0	1	20
299.7841796875	0.0999734025153884	613958	327	15	stim15_sf2_pattern2_cont2_shape2.png	1	155	0	541.066431248144	541.166404650659	0.0999734025153884	stim15_sf2_pattern2_cont2_shape2.png	2	2	2	2	1	2	0	0	0	0	0	0	0	0	0	0	0	0	1	20
300.2841796875	0.0999959825185215	614982	328	4	stim04_sf1_pattern2_cont1_shape1.png	1	156	0	541.566434913728	541.666430896246	0.0999959825185215	stim04_sf1_pattern2_cont1_shape1.png	1	2	1	1	1	3	0	0	0	0	0	0	0	0	0	0	0	0	1	20
300.7841796875	0.0999581536834739	616006	329	15	stim15_sf2_pattern2_cont2_shape2.png	1	157	0	542.066428022428	542.166386176112	0.0999581536834739	stim15_sf2_pattern2_cont2_shape2.png	2	2	2	2	1	2	0	0	0	0	0	0	0	0	0	0	0	0	1	20
301.2841796875	0.0999968622600136	617030	330	7	stim07_sf1_pattern2_cont2_shape2.png	1	158	0	542.566421131129	542.666417993389	0.0999968622600136	stim07_sf1_pattern2_cont2_shape2.png	1	2	2	2	1	2	0	0	0	0	0	0	0	0	0	0	0	0	1	20
301.7841796875	0.100002433948248	618054	331	13	stim13_sf2_pattern2_cont1_shape2.png	1	159	0	543.066384328657	543.166386762605	0.100002433948248	stim13_sf2_pattern2_cont1_shape2.png	2	2	1	2	1	1	0	0	0	0	0	0	0	0	0	0	0	0	1	20
302.2841796875	0.0999992082324752	619078	332	14	stim14_sf2_pattern2_cont2_shape1.png	1	160	0	543.566403829569	543.666403037802	0.0999992082324752	stim14_sf2_pattern2_cont2_shape1.png	2	2	2	1	1	4	0	0	0	0	0	0	0	0	0	0	0	0	1	20
302.7841796875	0.0999983284928021	620102	333	11	stim11_sf2_pattern1_cont2_shape2.png	1	161	0	544.066395472035	544.166393800528	0.0999983284928021	stim11_sf2_pattern1_cont2_shape2.png	2	1	2	2	1	2	0	0	0	0	0	0	0	0	0	0	0	0	1	20
303.2841796875	0.0999951027788484	621126	334	10	stim10_sf2_pattern1_cont2_shape1.png	1	162	0	544.566391513203	544.666386615982	0.0999951027788484	stim10_sf2_pattern1_cont2_shape1.png	2	1	2	1	1	4	0	0	0	0	0	0	0	0	0	0	0	0	1	20
303.7841796875	0.10002149499087	622150	335	5	stim05_sf1_pattern2_cont1_shape2.png	1	163	0	545.066340928131	545.166362423122	0.10002149499087	stim05_sf1_pattern2_cont1_shape2.png	1	2	1	2	1	1	0	0	0	0	0	0	0	0	0	0	0	0	1	20
304.2841796875	0.0999986217393598	623174	336	8	stim08_sf2_pattern1_cont1_shape1.png	1	164	0	545.56637450489	545.666373126629	0.0999986217393598	stim08_sf2_pattern1_cont1_shape1.png	2	1	1	1	1	3	0	0	0	0	0	0	0	0	0	0	0	0	1	20
304.7841796875	0.100005952910578	624198	337	1	stim01_sf1_pattern1_cont1_shape2.png	1	165	0	546.066348259301	546.166354212211	0.100005952910578	stim01_sf1_pattern1_cont1_shape2.png	1	1	1	2	1	1	0	0	0	0	0	0	0	0	0	0	0	0	1	20
305.2841796875	0.100000087973967	625222	338	9	stim09_sf2_pattern1_cont1_shape2.png	1	166	0	546.566354857354	546.666354945328	0.100000087973967	stim09_sf2_pattern1_cont1_shape2.png	2	1	1	2	1	1	0	0	0	0	0	0	0	0	0	0	0	0	1	20
305.7841796875	0.100004486675971	626246	339	6	stim06_sf1_pattern2_cont2_shape1.png	1	167	0	547.066348259301	547.166352745977	0.100004486675971	stim06_sf1_pattern2_cont2_shape1.png	1	2	2	1	1	4	0	0	0	0	0	0	0	0	0	0	0	0	1	20
306.2841796875	0.0999678308271541	627270	340	0	stim00_sf1_pattern1_cont1_shape1.png	1	168	0	547.566356910082	547.666324740909	0.0999678308271541	stim00_sf1_pattern1_cont1_shape1.png	1	1	1	1	1	3	0	0	0	0	0	0	0	0	0	0	0	0	1	20
306.7841796875	0.100011817847189	628294	341	3	stim03_sf1_pattern1_cont2_shape2.png	1	169	0	548.066302512801	548.166314330649	0.100011817847189	stim03_sf1_pattern1_cont2_shape2.png	1	1	2	2	1	2	0	0	0	0	0	0	0	0	0	0	0	0	1	20
307.28369140625	0.100000087973967	629317	342	12	stim12_sf2_pattern2_cont1_shape1.png	1	170	0	548.56630676488	548.666306852854	0.100000087973967	stim12_sf2_pattern2_cont1_shape1.png	2	2	1	1	1	3	0	0	0	0	0	0	0	0	0	0	0	0	1	20
307.78369140625	0.10000214070169	630341	343	2	stim02_sf1_pattern1_cont2_shape1.png	1	171	0	549.066311310205	549.166313450907	0.10000214070169	stim02_sf1_pattern1_cont2_shape1.png	1	1	2	1	1	4	0	0	0	0	0	0	0	0	0	0	0	0	1	20
324.61669921875	0.100000381220525	664815	344	4	stim04_sf1_pattern2_cont1_shape1.png	2	0	0	565.899399635846	565.999400017066	0.100000381220525	stim04_sf1_pattern2_cont1_shape1.png	1	2	1	1	1	3	0	0	0	0	0	0	0	0	0	0	0	0	1	20
325.11669921875	0.0999936365442409	665839	345	10	stim10_sf2_pattern1_cont2_shape1.png	2	1	0	566.399394504027	566.499388140572	0.0999936365442409	stim10_sf2_pattern1_cont2_shape1.png	2	1	2	1	1	4	0	0	0	0	0	0	0	0	0	0	0	0	1	20
325.61669921875	0.0999754552431114	666863	346	13	stim13_sf2_pattern2_cont1_shape2.png	2	2	0	566.89937646935	566.999351924593	0.0999754552431114	stim13_sf2_pattern2_cont1_shape2.png	2	2	1	2	1	1	0	0	0	0	0	0	0	0	0	0	0	0	1	20
326.11669921875	0.100004486675971	667887	347	0	stim00_sf1_pattern1_cont1_shape1.png	2	3	0	567.399379841687	567.499384328363	0.100004486675971	stim00_sf1_pattern1_cont1_shape1.png	1	1	1	1	1	3	0	0	0	0	0	0	0	0	0	0	0	0	1	20
326.61669921875	0.0999731092688307	668911	348	7	stim07_sf1_pattern2_cont2_shape2.png	2	4	0	567.899349197398	567.999322306667	0.0999731092688307	stim07_sf1_pattern2_cont2_shape2.png	1	2	2	2	1	2	0	0	0	0	0	0	0	0	0	0	0	0	1	20
327.11669921875	0.0999863053748413	669935	349	12	stim12_sf2_pattern2_cont1_shape1.png	2	5	0	568.399338200643	568.499324506018	0.0999863053748413	stim12_sf2_pattern2_cont1_shape1.png	2	2	1	1	1	3	0	0	0	0	0	0	0	0	0	0	0	0	1	20
327.61669921875	0.100014457066209	670959	350	2	stim02_sf1_pattern1_cont2_shape1.png	2	6	0	568.899311368563	568.999325825629	0.100014457066209	stim02_sf1_pattern1_cont2_shape1.png	1	1	2	1	1	4	0	0	0	0	0	0	0	0	0	0	0	0	1	20
328.11669921875	0.100048766940745	671983	351	11	stim11_sf2_pattern1_cont2_shape2.png	2	7	0	569.399304477263	569.499353244204	0.100048766940745	stim11_sf2_pattern1_cont2_shape2.png	2	1	2	2	1	2	0	0	0	0	0	0	0	0	0	0	0	0	1	20
328.61669921875	0.100027066679104	673007	352	6	stim06_sf1_pattern2_cont2_shape1.png	2	8	0	569.899286442585	569.999313509265	0.100027066679104	stim06_sf1_pattern2_cont2_shape1.png	1	2	2	1	1	4	0	0	0	0	0	0	0	0	0	0	0	0	1	20
329.11669921875	0.100015043561143	674031	353	14	stim14_sf2_pattern2_cont2_shape1.png	2	9	0	570.399317086874	570.499332130436	0.100015043561143	stim14_sf2_pattern2_cont2_shape1.png	2	2	2	1	1	4	0	0	0	0	0	0	0	0	0	0	0	0	1	20
329.61669921875	0.100050819668468	675055	354	1	stim01_sf1_pattern1_cont1_shape2.png	2	10	0	570.899256824659	570.999307644328	0.100050819668468	stim01_sf1_pattern1_cont1_shape2.png	1	1	1	2	1	1	0	0	0	0	0	0	0	0	0	0	0	0	1	20
330.11669921875	0.0999965690134559	676079	355	5	stim05_sf1_pattern2_cont1_shape2.png	2	11	0	571.399301838041	571.499298407054	0.0999965690134559	stim05_sf1_pattern2_cont1_shape2.png	1	2	1	2	1	1	0	0	0	0	0	0	0	0	0	0	0	0	1	20
330.61669921875	0.0999997947274096	677103	356	8	stim08_sf2_pattern1_cont1_shape1.png	2	12	0	571.899290254793	571.99929004952	0.0999997947274096	stim08_sf2_pattern1_cont1_shape1.png	2	1	1	1	1	3	0	0	0	0	0	0	0	0	0	0	0	0	1	20
331.11669921875	0.0999889445956796	678127	357	3	stim03_sf1_pattern1_cont2_shape2.png	2	13	0	572.399315327393	572.499304271989	0.0999889445956796	stim03_sf1_pattern1_cont2_shape2.png	1	1	2	2	1	2	0	0	0	0	0	0	0	0	0	0	0	0	1	20
331.61669921875	0.0999977419996867	679151	358	9	stim09_sf2_pattern1_cont1_shape2.png	2	14	0	572.899290548041	572.999288290041	0.0999977419996867	stim09_sf2_pattern1_cont1_shape2.png	2	1	1	2	1	1	0	0	0	0	0	0	0	0	0	0	0	0	1	20
332.11669921875	0.0999912905699603	680175	359	15	stim15_sf2_pattern2_cont2_shape2.png	2	15	1	573.399288935183	573.499280225753	0.0999912905699603	stim15_sf2_pattern2_cont2_shape2.png	2	2	2	2	1	2	0	0	0	0	0	0	0	0	0	0	0	0	1	20
332.61669921875	0.0999992082324752	681199	360	15	stim15_sf2_pattern2_cont2_shape2.png	2	16	1	573.899267968038	573.99926717627	0.0999992082324752	stim15_sf2_pattern2_cont2_shape2.png	2	2	2	2	1	2	0	0	0	0	0	0	0	0	0	0	0	0	1	20
333.11669921875	0.10000214070169	682223	361	0	stim00_sf1_pattern1_cont1_shape1.png	2	17	2	574.399284536481	574.499286677183	0.10000214070169	stim00_sf1_pattern1_cont1_shape1.png	1	1	1	1	1	3	0	0	0	0	0	0	0	0	0	0	0	0	1	20
333.61669921875	0.100000674467083	683247	362	12	stim12_sf2_pattern2_cont1_shape1.png	2	18	2	574.899246267774	574.999246942241	0.100000674467083	stim12_sf2_pattern2_cont1_shape1.png	2	2	1	1	1	3	0	0	0	0	0	0	0	0	0	0	0	0	1	20
334.11669921875	0.10001299083342	684271	363	15	stim15_sf2_pattern2_cont2_shape2.png	2	19	0	575.399237323747	575.49925031458	0.10001299083342	stim15_sf2_pattern2_cont2_shape2.png	2	2	2	2	1	2	0	0	0	0	0	0	0	0	0	0	0	0	1	20
334.61669921875	0.0999968622600136	685295	364	7	stim07_sf1_pattern2_cont2_shape2.png	2	20	0	575.899229552708	575.999226414968	0.0999968622600136	stim07_sf1_pattern2_cont2_shape2.png	1	2	2	2	1	2	0	0	0	0	0	0	0	0	0	0	0	0	1	20
335.11669921875	0.0999995014808519	686319	365	15	stim15_sf2_pattern2_cont2_shape2.png	2	21	0	576.399238789982	576.499238291462	0.0999995014808519	stim15_sf2_pattern2_cont2_shape2.png	2	2	2	2	1	2	0	0	0	0	0	0	0	0	0	0	0	0	1	20
335.61669921875	0.0999695903065003	687343	366	5	stim05_sf1_pattern2_cont1_shape2.png	2	22	0	576.899212837641	576.999182427948	0.0999695903065003	stim05_sf1_pattern2_cont1_shape2.png	1	2	1	2	1	1	0	0	0	0	0	0	0	0	0	0	0	0	1	20
336.11669921875	0.0999769214777189	688367	367	11	stim11_sf2_pattern1_cont2_shape2.png	2	23	0	577.399245241411	577.499222162889	0.0999769214777189	stim11_sf2_pattern1_cont2_shape2.png	2	1	2	2	1	2	0	0	0	0	0	0	0	0	0	0	0	0	1	20
336.6162109375	0.10002149499087	689390	368	0	stim00_sf1_pattern1_cont1_shape1.png	2	24	0	577.899180287246	577.999201782237	0.10002149499087	stim00_sf1_pattern1_cont1_shape1.png	1	1	1	1	1	3	0	0	0	0	0	0	0	0	0	0	0	0	1	20
337.1162109375	0.0999968622581946	690414	369	4	stim04_sf1_pattern2_cont1_shape1.png	2	25	0	578.399208585563	578.499205447821	0.0999968622581946	stim04_sf1_pattern2_cont1_shape1.png	1	2	1	1	1	3	0	0	0	0	0	0	0	0	0	0	0	0	1	20
337.6162109375	0.100017389535424	691438	370	3	stim03_sf1_pattern1_cont2_shape2.png	2	26	0	578.899164158673	578.999181548208	0.100017389535424	stim03_sf1_pattern1_cont2_shape2.png	1	1	2	2	1	2	0	0	0	0	0	0	0	0	0	0	0	0	1	20
338.1162109375	0.0999980352462444	692462	371	8	stim08_sf2_pattern1_cont1_shape1.png	2	27	0	579.39919597595	579.499194011196	0.0999980352462444	stim08_sf2_pattern1_cont1_shape1.png	2	1	1	1	1	3	0	0	0	0	0	0	0	0	0	0	0	0	1	20
338.6162109375	0.100056391356702	693486	372	10	stim10_sf2_pattern1_cont2_shape1.png	2	28	0	579.899110201264	579.999166592621	0.100056391356702	stim10_sf2_pattern1_cont2_shape1.png	2	1	2	1	1	4	0	0	0	0	0	0	0	0	0	0	0	0	1	20
339.1162109375	0.0999575671885395	694510	373	9	stim09_sf2_pattern1_cont1_shape2.png	2	29	0	580.399176621662	580.499134188851	0.0999575671885395	stim09_sf2_pattern1_cont1_shape2.png	2	1	1	2	1	1	0	0	0	0	0	0	0	0	0	0	0	0	1	20
339.6162109375	0.0999792674519995	695534	374	12	stim12_sf2_pattern2_cont1_shape1.png	2	30	0	580.899172956077	580.999152223529	0.0999792674519995	stim12_sf2_pattern2_cont1_shape1.png	2	2	1	1	1	3	0	0	0	0	0	0	0	0	0	0	0	0	1	20
340.1162109375	0.100000381220525	696558	375	6	stim06_sf1_pattern2_cont2_shape1.png	2	31	0	581.399164598544	581.499164979765	0.100000381220525	stim06_sf1_pattern2_cont2_shape1.png	1	2	2	1	1	4	0	0	0	0	0	0	0	0	0	0	0	0	1	20
340.6162109375	0.0999692970599426	697582	376	13	stim13_sf2_pattern2_cont1_shape2.png	2	32	0	581.89914627062	581.99911556768	0.0999692970599426	stim13_sf2_pattern2_cont1_shape2.png	2	2	1	2	1	1	0	0	0	0	0	0	0	0	0	0	0	0	1	20
341.1162109375	0.09999744875131	698606	377	2	stim02_sf1_pattern1_cont2_shape1.png	2	33	0	582.399134687372	582.499132136123	0.09999744875131	stim02_sf1_pattern1_cont2_shape1.png	1	1	2	1	1	4	0	0	0	0	0	0	0	0	0	0	0	0	1	20
341.6162109375	0.0999713497894845	699630	378	1	stim01_sf1_pattern1_cont1_shape2.png	2	34	0	582.899111081004	582.999082430793	0.0999713497894845	stim01_sf1_pattern1_cont1_shape2.png	1	1	1	2	1	1	0	0	0	0	0	0	0	0	0	0	0	0	1	20
342.1162109375	0.0999986217411788	700654	379	14	stim14_sf2_pattern2_cont2_shape1.png	2	35	0	583.399088647624	583.499087269365	0.0999986217411788	stim14_sf2_pattern2_cont2_shape1.png	2	2	2	1	1	4	0	0	0	0	0	0	0	0	0	0	0	0	1	20
342.6162109375	0.0999754552431114	701678	380	0	stim00_sf1_pattern1_cont1_shape1.png	2	36	0	583.899089673989	583.999065129232	0.0999754552431114	stim00_sf1_pattern1_cont1_shape1.png	1	1	1	1	1	3	0	0	0	0	0	0	0	0	0	0	0	0	1	20
343.1162109375	0.0999883581025642	702702	381	1	stim01_sf1_pattern1_cont1_shape2.png	2	37	0	584.399081609701	584.499069967804	0.0999883581025642	stim01_sf1_pattern1_cont1_shape2.png	1	1	1	2	1	1	0	0	0	0	0	0	0	0	0	0	0	0	1	20
343.6162109375	0.0999983284928021	703726	382	7	stim07_sf1_pattern2_cont2_shape2.png	2	38	0	584.899065920999	584.999064249492	0.0999983284928021	stim07_sf1_pattern2_cont2_shape2.png	1	2	2	2	1	2	0	0	0	0	0	0	0	0	0	0	0	0	1	20
344.1162109375	0.100002727196625	704750	383	11	stim11_sf2_pattern1_cont2_shape2.png	2	39	0	585.399063135153	585.49906586235	0.100002727196625	stim11_sf2_pattern1_cont2_shape2.png	2	1	2	2	1	2	0	0	0	0	0	0	0	0	0	0	0	0	1	20
344.6162109375	0.0999628456320352	705774	384	3	stim03_sf1_pattern1_cont2_shape2.png	2	40	0	585.899079117104	585.999041962736	0.0999628456320352	stim03_sf1_pattern1_cont2_shape2.png	1	1	2	2	1	2	0	0	0	0	0	0	0	0	0	0	0	0	1	20
345.1162109375	0.0999927568045678	706798	385	5	stim05_sf1_pattern2_cont1_shape2.png	2	41	0	586.399080729961	586.499073486766	0.0999927568045678	stim05_sf1_pattern2_cont1_shape2.png	1	2	1	2	1	1	0	0	0	0	0	0	0	0	0	0	0	0	1	20
345.6162109375	0.099983666154003	707822	386	13	stim13_sf2_pattern2_cont1_shape2.png	2	42	0	586.899075304897	586.999058971051	0.099983666154003	stim13_sf2_pattern2_cont1_shape2.png	2	2	1	2	1	1	0	0	0	0	0	0	0	0	0	0	0	0	1	20
346.1162109375	0.0999948095322907	708846	387	6	stim06_sf1_pattern2_cont2_shape1.png	2	43	0	587.399083662429	587.499078471961	0.0999948095322907	stim06_sf1_pattern2_cont2_shape1.png	1	2	2	1	1	4	0	0	0	0	0	0	0	0	0	0	0	0	1	20
346.6162109375	0.0999904108302871	709870	388	2	stim02_sf1_pattern1_cont2_shape1.png	2	44	0	587.899075598143	587.999066008973	0.0999904108302871	stim02_sf1_pattern1_cont2_shape1.png	1	1	2	1	1	4	0	0	0	0	0	0	0	0	0	0	0	0	1	20
347.1162109375	0.0999909973234026	710894	389	14	stim14_sf2_pattern2_cont2_shape1.png	2	45	0	588.399064894635	588.499055891958	0.0999909973234026	stim14_sf2_pattern2_cont2_shape1.png	2	2	2	1	1	4	0	0	0	0	0	0	0	0	0	0	0	0	1	20
347.6162109375	0.0999962757668982	711918	390	8	stim08_sf2_pattern1_cont1_shape1.png	2	46	0	588.899051258659	588.999047534426	0.0999962757668982	stim08_sf2_pattern1_cont1_shape1.png	2	1	1	1	1	3	0	0	0	0	0	0	0	0	0	0	0	0	1	20
348.1162109375	0.100005073169086	712942	391	9	stim09_sf2_pattern1_cont1_shape2.png	2	47	0	589.399039968657	589.499045041826	0.100005073169086	stim09_sf2_pattern1_cont1_shape2.png	2	1	1	2	1	1	0	0	0	0	0	0	0	0	0	0	0	0	1	20
348.6162109375	0.0999989149859175	713966	392	10	stim10_sf2_pattern1_cont2_shape1.png	2	48	0	589.899034543592	589.999033458578	0.0999989149859175	stim10_sf2_pattern1_cont2_shape1.png	2	1	2	1	1	4	0	0	0	0	0	0	0	0	0	0	0	0	1	20
349.1162109375	0.100018562521655	714990	393	15	stim15_sf2_pattern2_cont2_shape2.png	2	49	0	590.39898865047	590.499007212991	0.100018562521655	stim15_sf2_pattern2_cont2_shape2.png	2	2	2	2	1	2	0	0	0	0	0	0	0	0	0	0	0	0	1	20
349.6162109375	0.0999951027788484	716014	394	12	stim12_sf2_pattern2_cont1_shape1.png	2	50	0	590.89902105424	590.999016157019	0.0999951027788484	stim12_sf2_pattern2_cont1_shape1.png	2	2	1	1	1	3	0	0	0	0	0	0	0	0	0	0	0	0	1	20
350.1162109375	0.100027359925662	717038	395	4	stim04_sf1_pattern2_cont1_shape1.png	2	51	0	591.398970175922	591.498997535848	0.100027359925662	stim04_sf1_pattern2_cont1_shape1.png	1	2	1	1	1	3	0	0	0	0	0	0	0	0	0	0	0	0	1	20
350.6162109375	0.0999716430360422	718062	396	2	stim02_sf1_pattern1_cont2_shape1.png	2	52	0	591.899002579692	591.998974222728	0.0999716430360422	stim02_sf1_pattern1_cont2_shape1.png	1	1	2	1	1	4	0	0	0	0	0	0	0	0	0	0	0	0	1	20
351.1162109375	0.0999616726439854	719086	397	9	stim09_sf2_pattern1_cont1_shape2.png	2	53	0	592.398991582937	592.498953255581	0.0999616726439854	stim09_sf2_pattern1_cont1_shape2.png	2	1	1	2	1	1	0	0	0	0	0	0	0	0	0	0	0	0	1	20
351.6162109375	0.100016216547374	720110	398	12	stim12_sf2_pattern2_cont1_shape1.png	2	54	0	592.898950381763	592.99896659831	0.100016216547374	stim12_sf2_pattern2_cont1_shape1.png	2	2	1	1	1	3	0	0	0	0	0	0	0	0	0	0	0	0	1	20
352.1162109375	0.0999279492643836	721134	399	14	stim14_sf2_pattern2_cont2_shape1.png	2	55	0	593.399032637488	593.498960586752	0.0999279492643836	stim14_sf2_pattern2_cont2_shape1.png	2	2	2	1	1	4	0	0	0	0	0	0	0	0	0	0	0	0	1	20
352.6162109375	0.10000947187109	722158	400	1	stim01_sf1_pattern1_cont1_shape2.png	2	56	0	593.89895976566	593.998969237531	0.10000947187109	stim01_sf1_pattern1_cont1_shape2.png	1	1	1	2	1	1	0	0	0	0	0	0	0	0	0	0	0	0	1	20
353.1162109375	0.0999575671903585	723182	401	6	stim06_sf1_pattern2_cont2_shape1.png	2	57	0	594.398966950206	594.498924517397	0.0999575671903585	stim06_sf1_pattern2_cont2_shape1.png	1	2	2	1	1	4	0	0	0	0	0	0	0	0	0	0	0	0	1	20
353.61572265625	0.0999995014808519	724205	402	15	stim15_sf2_pattern2_cont2_shape2.png	2	58	0	594.898958592674	594.998958094155	0.0999995014808519	stim15_sf2_pattern2_cont2_shape2.png	2	2	2	2	1	2	0	0	0	0	0	0	0	0	0	0	0	0	1	20
354.11572265625	0.100001260962017	725229	403	8	stim08_sf2_pattern1_cont1_shape1.png	2	59	0	595.398929414618	595.49893067558	0.100001260962017	stim08_sf2_pattern1_cont1_shape1.png	2	1	1	1	1	3	0	0	0	0	0	0	0	0	0	0	0	0	1	20
354.61572265625	0.100001554208575	726253	404	7	stim07_sf1_pattern2_cont2_shape2.png	2	60	0	595.898937185657	595.998938739865	0.100001554208575	stim07_sf1_pattern2_cont2_shape2.png	1	2	2	2	1	2	0	0	0	0	0	0	0	0	0	0	0	0	1	20
355.11572265625	0.100000381220525	727277	405	3	stim03_sf1_pattern1_cont2_shape2.png	2	61	0	596.398925015916	596.498925397136	0.100000381220525	stim03_sf1_pattern1_cont2_shape2.png	1	1	2	2	1	2	0	0	0	0	0	0	0	0	0	0	0	0	1	20
355.61572265625	0.0999821999193955	728301	406	0	stim00_sf1_pattern1_cont1_shape1.png	2	62	0	596.898928388255	596.998910588174	0.0999821999193955	stim00_sf1_pattern1_cont1_shape1.png	1	1	1	1	1	3	0	0	0	0	0	0	0	0	0	0	0	0	1	20
356.11572265625	0.100011231352255	729325	407	5	stim05_sf1_pattern2_cont1_shape2.png	2	63	0	597.398886600586	597.498897831938	0.100011231352255	stim05_sf1_pattern2_cont1_shape2.png	1	2	1	2	1	1	0	0	0	0	0	0	0	0	0	0	0	0	1	20
356.61572265625	0.100006539401875	730349	408	11	stim11_sf2_pattern1_cont2_shape2.png	2	64	0	597.898900823056	597.998907362458	0.100006539401875	stim11_sf2_pattern1_cont2_shape2.png	2	1	2	2	1	2	0	0	0	0	0	0	0	0	0	0	0	0	1	20
357.11572265625	0.0999889445956796	731373	409	10	stim10_sf2_pattern1_cont2_shape1.png	2	65	0	598.398873697728	598.498862642324	0.0999889445956796	stim10_sf2_pattern1_cont2_shape1.png	2	1	2	1	1	4	0	0	0	0	0	0	0	0	0	0	0	0	1	20
357.61572265625	0.0999904108284682	732397	410	13	stim13_sf2_pattern2_cont1_shape2.png	2	66	0	598.898859475259	598.998849886088	0.0999904108284682	stim13_sf2_pattern2_cont1_shape2.png	2	2	1	2	1	1	0	0	0	0	0	0	0	0	0	0	0	0	1	20
358.11572265625	0.100003020441363	733421	411	4	stim04_sf1_pattern2_cont1_shape1.png	2	67	0	599.398834989152	599.498838009593	0.100003020441363	stim04_sf1_pattern2_cont1_shape1.png	1	2	1	1	1	3	0	0	0	0	0	0	0	0	0	0	0	0	1	20
358.61572265625	0.100028239667154	734445	412	3	stim03_sf1_pattern1_cont2_shape2.png	2	68	0	599.898806690835	599.998834930502	0.100028239667154	stim03_sf1_pattern1_cont2_shape2.png	1	1	2	2	1	2	0	0	0	0	0	0	0	0	0	0	0	0	1	20
359.11572265625	0.100000381220525	735469	413	10	stim10_sf2_pattern1_cont2_shape1.png	2	69	0	600.398819740318	600.498820121538	0.100000381220525	stim10_sf2_pattern1_cont2_shape1.png	2	1	2	1	1	4	0	0	0	0	0	0	0	0	0	0	0	0	1	20
359.61572265625	0.0999772147242766	736493	414	6	stim06_sf1_pattern2_cont2_shape1.png	2	70	0	600.898813435511	600.998790650236	0.0999772147242766	stim06_sf1_pattern2_cont2_shape1.png	1	2	2	1	1	4	0	0	0	0	0	0	0	0	0	0	0	0	1	20
360.11572265625	0.10002384096515	737517	415	11	stim11_sf2_pattern1_cont2_shape2.png	2	71	0	601.398854343439	601.498878184404	0.10002384096515	stim11_sf2_pattern1_cont2_shape2.png	2	1	2	2	1	2	0	0	0	0	0	0	0	0	0	0	0	0	1	20
360.61572265625	0.0999918770648947	738541	416	13	stim13_sf2_pattern2_cont1_shape2.png	2	72	0	601.898831323566	601.998823200631	0.0999918770648947	stim13_sf2_pattern2_cont1_shape2.png	2	2	1	2	1	1	0	0	0	0	0	0	0	0	0	0	0	0	1	20
361.11572265625	0.0999992082324752	739565	417	9	stim09_sf2_pattern1_cont1_shape2.png	2	73	0	602.398821206552	602.498820414785	0.0999992082324752	stim09_sf2_pattern1_cont1_shape2.png	2	1	1	2	1	1	0	0	0	0	0	0	0	0	0	0	0	0	1	20
361.61572265625	0.100388053477218	740589	418	2	stim02_sf1_pattern1_cont2_shape1.png	2	74	0	602.898828097852	602.999216151329	0.100388053477218	stim02_sf1_pattern1_cont2_shape1.png	1	1	2	1	1	4	0	0	0	0	0	0	0	0	0	0	0	0	1	20
362.11572265625	0.100024720704823	741613	419	1	stim01_sf1_pattern1_cont1_shape2.png	2	75	0	603.398790415638	603.498815136343	0.100024720704823	stim01_sf1_pattern1_cont1_shape2.png	1	1	1	2	1	1	0	0	0	0	0	0	0	0	0	0	0	0	1	20
362.61572265625	0.0999924635580101	742637	420	0	stim00_sf1_pattern1_cont1_shape1.png	2	76	0	603.89882721811	603.998819681668	0.0999924635580101	stim00_sf1_pattern1_cont1_shape1.png	1	1	1	1	1	3	0	0	0	0	0	0	0	0	0	0	0	0	1	20
363.11572265625	0.0999754552431114	743661	421	7	stim07_sf1_pattern2_cont2_shape2.png	2	77	0	604.398818567332	604.498794022575	0.0999754552431114	stim07_sf1_pattern2_cont2_shape2.png	1	2	2	2	1	2	0	0	0	0	0	0	0	0	0	0	0	0	1	20
363.61572265625	0.100058737332802	744685	422	12	stim12_sf2_pattern2_cont1_shape1.png	2	78	0	604.89875331992	604.998812057253	0.100058737332802	stim12_sf2_pattern2_cont1_shape1.png	2	2	1	1	1	3	0	0	0	0	0	0	0	0	0	0	0	0	1	20
364.11572265625	0.100001260960198	745709	423	15	stim15_sf2_pattern2_cont2_shape2.png	2	79	0	605.398775460053	605.498776721013	0.100001260960198	stim15_sf2_pattern2_cont2_shape2.png	2	2	2	2	1	2	0	0	0	0	0	0	0	0	0	0	0	0	1	20
364.61572265625	0.0999968622600136	746733	424	5	stim05_sf1_pattern2_cont1_shape2.png	2	80	0	605.89879173525	605.99878859751	0.0999968622600136	stim05_sf1_pattern2_cont1_shape2.png	1	2	1	2	1	1	0	0	0	0	0	0	0	0	0	0	0	0	1	20
365.11572265625	0.100000674467083	747757	425	8	stim08_sf2_pattern1_cont1_shape1.png	2	81	0	606.398764316675	606.498764991142	0.100000674467083	stim08_sf2_pattern1_cont1_shape1.png	2	1	1	1	1	3	0	0	0	0	0	0	0	0	0	0	0	0	1	20
365.61572265625	0.0999997947274096	748781	426	14	stim14_sf2_pattern2_cont2_shape1.png	2	82	0	606.898772087714	606.998771882441	0.0999997947274096	stim14_sf2_pattern2_cont2_shape1.png	2	2	2	1	1	4	0	0	0	0	0	0	0	0	0	0	0	0	1	20
366.11572265625	0.0999804404400493	749805	427	4	stim04_sf1_pattern2_cont1_shape1.png	2	83	0	607.398766955896	607.498747396336	0.0999804404400493	stim04_sf1_pattern2_cont1_shape1.png	1	2	1	1	1	3	0	0	0	0	0	0	0	0	0	0	0	0	1	20
366.61572265625	0.0999751619983726	750829	428	0	stim00_sf1_pattern1_cont1_shape1.png	2	84	0	607.898756252387	607.998731414385	0.0999751619983726	stim00_sf1_pattern1_cont1_shape1.png	1	1	1	1	1	3	0	0	0	0	0	0	0	0	0	0	0	0	1	20
367.11572265625	0.100001260962017	751853	429	1	stim01_sf1_pattern1_cont1_shape2.png	2	85	0	608.398753173296	608.498754434258	0.100001260962017	stim01_sf1_pattern1_cont1_shape2.png	1	1	1	2	1	1	0	0	0	0	0	0	0	0	0	0	0	0	1	20
367.61572265625	0.099966951087481	752877	430	14	stim14_sf2_pattern2_cont2_shape1.png	2	86	0	608.898742469788	608.998709420875	0.099966951087481	stim14_sf2_pattern2_cont2_shape1.png	2	2	2	1	1	4	0	0	0	0	0	0	0	0	0	0	0	0	1	20
368.11572265625	0.100004486675971	753901	431	4	stim04_sf1_pattern2_cont1_shape1.png	2	87	0	609.398735871737	609.498740358413	0.100004486675971	stim04_sf1_pattern2_cont1_shape1.png	1	2	1	1	1	3	0	0	0	0	0	0	0	0	0	0	0	0	1	20
368.61572265625	0.100013870573093	754925	432	8	stim08_sf2_pattern1_cont1_shape1.png	2	88	0	609.898712851864	609.998726722437	0.100013870573093	stim08_sf2_pattern1_cont1_shape1.png	2	1	1	1	1	3	0	0	0	0	0	0	0	0	0	0	0	0	1	20
369.11572265625	0.0999980352462444	755949	433	10	stim10_sf2_pattern1_cont2_shape1.png	2	89	0	610.398722968877	610.498721004124	0.0999980352462444	stim10_sf2_pattern1_cont2_shape1.png	2	1	2	1	1	4	0	0	0	0	0	0	0	0	0	0	0	0	1	20
369.61572265625	0.0999968622600136	756973	434	5	stim05_sf1_pattern2_cont1_shape2.png	2	90	0	610.898716664071	610.998713526331	0.0999968622600136	stim05_sf1_pattern2_cont1_shape2.png	1	2	1	2	1	1	0	0	0	0	0	0	0	0	0	0	0	0	1	20
370.11572265625	0.100001554208575	757997	435	7	stim07_sf1_pattern2_cont2_shape2.png	2	91	0	611.398705667316	611.498707221524	0.100001554208575	stim07_sf1_pattern2_cont2_shape2.png	1	2	2	2	1	2	0	0	0	0	0	0	0	0	0	0	0	0	1	20
370.61572265625	0.100005073169086	759021	436	13	stim13_sf2_pattern2_cont1_shape2.png	2	92	0	611.898694670563	611.998699743732	0.100005073169086	stim13_sf2_pattern2_cont1_shape2.png	2	2	1	2	1	1	0	0	0	0	0	0	0	0	0	0	0	0	1	20
371.115234375	0.100012111091928	760044	437	6	stim06_sf1_pattern2_cont2_shape1.png	2	93	0	612.398692177965	612.498704289057	0.100012111091928	stim06_sf1_pattern2_cont2_shape1.png	1	2	2	1	1	4	0	0	0	0	0	0	0	0	0	0	0	0	1	20
371.615234375	0.100007125896809	761068	438	15	stim15_sf2_pattern2_cont2_shape2.png	2	94	0	612.898666225623	612.99867335152	0.100007125896809	stim15_sf2_pattern2_cont2_shape2.png	2	2	2	2	1	2	0	0	0	0	0	0	0	0	0	0	0	0	1	20
372.115234375	0.100023547716773	762092	439	12	stim12_sf2_pattern2_cont1_shape1.png	2	95	0	613.398657868091	613.498681415807	0.100023547716773	stim12_sf2_pattern2_cont1_shape1.png	2	2	1	1	1	3	0	0	0	0	0	0	0	0	0	0	0	0	1	20
372.615234375	0.099977801217392	763116	440	9	stim09_sf2_pattern1_cont1_shape2.png	2	96	0	613.89862634406	613.998604145278	0.099977801217392	stim09_sf2_pattern1_cont1_shape2.png	2	1	1	2	1	1	0	0	0	0	0	0	0	0	0	0	0	0	1	20
373.115234375	0.0999992082342942	764140	441	3	stim03_sf1_pattern1_cont2_shape2.png	2	97	0	614.398618279773	614.498617488007	0.0999992082342942	stim03_sf1_pattern1_cont2_shape2.png	1	1	2	2	1	2	0	0	0	0	0	0	0	0	0	0	0	0	1	20
373.615234375	0.0999690038133849	765164	442	2	stim02_sf1_pattern1_cont2_shape1.png	2	98	0	614.898610215487	614.9985792193	0.0999690038133849	stim02_sf1_pattern1_cont2_shape1.png	1	1	2	1	1	4	0	0	0	0	0	0	0	0	0	0	0	0	1	20
374.115234375	0.10000214070169	766188	443	11	stim11_sf2_pattern1_cont2_shape2.png	2	99	0	615.398589248342	615.498591389043	0.10000214070169	stim11_sf2_pattern1_cont2_shape2.png	2	1	2	2	1	2	0	0	0	0	0	0	0	0	0	0	0	0	1	20
374.615234375	0.100025013951381	767212	444	13	stim13_sf2_pattern2_cont1_shape2.png	2	100	0	615.898563002753	615.998588016704	0.100025013951381	stim13_sf2_pattern2_cont1_shape2.png	2	2	1	2	1	1	0	0	0	0	0	0	0	0	0	0	0	0	1	20
375.115234375	0.100013284078159	768236	445	9	stim09_sf2_pattern1_cont1_shape2.png	2	101	0	616.398589248342	616.49860253242	0.100013284078159	stim09_sf2_pattern1_cont1_shape2.png	2	1	1	2	1	1	0	0	0	0	0	0	0	0	0	0	0	0	1	20
375.615234375	0.0999904108302871	769260	446	14	stim14_sf2_pattern2_cont2_shape1.png	2	102	0	616.898628396788	616.998618807618	0.0999904108302871	stim14_sf2_pattern2_cont2_shape1.png	2	2	2	1	1	4	0	0	0	0	0	0	0	0	0	0	0	0	1	20
376.115234375	0.0999736957637651	770284	447	1	stim01_sf1_pattern1_cont1_shape2.png	2	103	0	617.398629129904	617.498602825668	0.0999736957637651	stim01_sf1_pattern1_cont1_shape2.png	1	1	1	2	1	1	0	0	0	0	0	0	0	0	0	0	0	0	1	20
376.615234375	0.100000674467083	771308	448	11	stim11_sf2_pattern1_cont2_shape2.png	2	104	0	617.898583530028	617.998584204495	0.100000674467083	stim11_sf2_pattern1_cont2_shape2.png	2	1	2	2	1	2	0	0	0	0	0	0	0	0	0	0	0	0	1	20
