onset	duration	onsetsample	eventnumber	stimnumber	stimname	blocknumber	trialnumber	istarget	time_stimon	time_stimoff	stimdur	stimfilename	spatial_freq	pattern	contrast	shape	is_fast_stream	category	ppt_1_response	ppt_1_keypressed	ppt_1_rt	ppt_1_correct	ppt_2_response	ppt_2_keypressed	ppt_2_rt	ppt_2_correct	button1	button2	button3	button4	task_part_number	subjectnr
161.240234375	0.100006539403694	330220	0	4	stim04_sf1_pattern2_cont1_shape1.png	0	0	0	194.681364782293	194.781371321696	0.100006539403694	stim04_sf1_pattern2_cont1_shape1.png	1	2	1	1	1	2	0	0	0	0	0	0	0	0	0	0	0	0	1	16
161.74853515625	0.0999854256369872	331261	1	7	stim07_sf1_pattern2_cont2_shape2.png	0	1	0	195.189669091524	195.289654517161	0.0999854256369872	stim07_sf1_pattern2_cont2_shape2.png	1	2	2	2	1	2	0	0	0	0	0	0	0	0	0	0	0	0	1	16
162.24853515625	0.106483774507069	332285	2	12	stim12_sf2_pattern2_cont1_shape1.png	0	2	0	195.70819129192	195.814675066427	0.106483774507069	stim12_sf2_pattern2_cont1_shape1.png	2	2	1	1	1	4	0	0	0	0	0	0	0	0	0	0	0	0	1	16
162.7734375	0.0999754552431114	333360	3	9	stim09_sf2_pattern1_cont1_shape2.png	0	3	0	196.214687441443	196.314662896686	0.0999754552431114	stim09_sf2_pattern1_cont1_shape2.png	2	1	1	2	1	3	0	0	0	0	0	0	0	0	0	0	0	0	1	16
163.2734375	0.0999672443322197	334384	4	1	stim01_sf1_pattern1_cont1_shape2.png	0	4	0	196.714661489103	196.814628733435	0.0999672443322197	stim01_sf1_pattern1_cont1_shape2.png	1	1	1	2	1	1	0	0	0	0	0	0	0	0	0	0	0	0	1	16
163.7734375	0.0999942230373563	335408	5	8	stim08_sf2_pattern1_cont1_shape1.png	0	5	0	197.21463289754	197.314627120577	0.0999942230373563	stim08_sf2_pattern1_cont1_shape1.png	2	1	1	1	1	3	0	0	0	0	0	0	0	0	0	0	0	0	1	16
164.2734375	0.0999734025172074	336432	6	10	stim10_sf2_pattern1_cont2_shape1.png	0	6	0	197.714659436373	197.81463283889	0.0999734025172074	stim10_sf2_pattern1_cont2_shape1.png	2	1	2	1	1	3	0	0	0	0	0	0	0	0	0	0	0	0	1	16
164.7734375	0.0999429048497404	337456	7	2	stim02_sf1_pattern1_cont2_shape1.png	0	7	0	198.214666620919	198.314609525769	0.0999429048497404	stim02_sf1_pattern1_cont2_shape1.png	1	1	2	1	1	1	0	0	0	0	0	0	0	0	0	0	0	0	1	16
165.2734375	0.0999959825203405	338480	8	15	stim15_sf2_pattern2_cont2_shape2.png	0	8	0	198.714621314291	198.814617296812	0.0999959825203405	stim15_sf2_pattern2_cont2_shape2.png	2	2	2	2	1	4	0	0	0	0	0	0	0	0	0	0	0	0	1	16
165.7734375	0.0999839594005607	339504	9	5	stim05_sf1_pattern2_cont1_shape2.png	0	9	0	199.214610317536	199.314594276937	0.0999839594005607	stim05_sf1_pattern2_cont1_shape2.png	1	2	1	2	1	2	0	0	0	0	0	0	0	0	0	0	0	0	1	16
166.2734375	0.100001260962017	340528	10	6	stim06_sf1_pattern2_cont2_shape1.png	0	10	0	199.714600200521	199.814601461483	0.100001260962017	stim06_sf1_pattern2_cont2_shape1.png	1	2	2	1	1	2	0	0	0	0	0	0	0	0	0	0	0	0	1	16
166.7734375	0.0999534617330937	341552	11	14	stim14_sf2_pattern2_cont2_shape1.png	0	11	0	200.214621754163	200.314575215896	0.0999534617330937	stim14_sf2_pattern2_cont2_shape1.png	2	2	2	1	1	4	0	0	0	0	0	0	0	0	0	0	0	0	1	16
167.2734375	0.0999766282329801	342576	12	11	stim11_sf2_pattern1_cont2_shape2.png	0	12	0	200.714609584418	200.814586212651	0.0999766282329801	stim11_sf2_pattern1_cont2_shape2.png	2	1	2	2	1	3	0	0	0	0	0	0	0	0	0	0	0	0	1	16
167.7734375	0.0999848391402338	343600	13	3	stim03_sf1_pattern1_cont2_shape2.png	0	13	0	201.214595068705	201.314579907845	0.0999848391402338	stim03_sf1_pattern1_cont2_shape2.png	1	1	2	2	1	1	0	0	0	0	0	0	0	0	0	0	0	0	1	16
168.2734375	0.0999971555065713	344624	14	13	stim13_sf2_pattern2_cont1_shape2.png	0	14	0	201.71457204883	201.814569204336	0.0999971555065713	stim13_sf2_pattern2_cont1_shape2.png	2	2	1	2	1	4	0	0	0	0	0	0	0	0	0	0	0	0	1	16
168.7734375	0.0999783877123264	345648	15	0	stim00_sf1_pattern1_cont1_shape1.png	0	15	0	202.214565744023	202.314544131736	0.0999783877123264	stim00_sf1_pattern1_cont1_shape1.png	1	1	1	1	1	1	0	0	0	0	0	0	0	0	0	0	0	0	1	16
169.2734375	0.0999962757668982	346672	16	9	stim09_sf2_pattern1_cont1_shape2.png	0	16	0	202.714557386491	202.814553662258	0.0999962757668982	stim09_sf2_pattern1_cont1_shape2.png	2	1	1	2	1	3	0	0	0	0	0	0	0	0	0	0	0	0	1	16
169.7734375	0.0999795606985572	347696	17	6	stim06_sf1_pattern2_cont2_shape1.png	0	17	0	203.214550788438	203.314530349136	0.0999795606985572	stim06_sf1_pattern2_cont2_shape1.png	1	2	2	1	1	2	0	0	0	0	0	0	0	0	0	0	0	0	1	16
170.2734375	0.0999962757668982	348720	18	11	stim11_sf2_pattern1_cont2_shape2.png	0	18	0	203.714544190385	203.814540466152	0.0999962757668982	stim11_sf2_pattern1_cont2_shape2.png	2	1	2	2	1	3	0	0	0	0	0	0	0	0	0	0	0	0	1	16
170.7734375	0.100027946420596	349744	19	1	stim01_sf1_pattern1_cont1_shape2.png	0	19	0	204.214513839343	204.314541785763	0.100027946420596	stim01_sf1_pattern1_cont1_shape2.png	1	1	1	2	1	1	0	0	0	0	0	0	0	0	0	0	0	0	1	16
171.2734375	0.0999912905717792	350768	20	7	stim07_sf1_pattern2_cont2_shape2.png	0	20	0	204.714530407786	204.814521698358	0.0999912905717792	stim07_sf1_pattern2_cont2_shape2.png	1	2	2	2	1	2	0	0	0	0	0	0	0	0	0	0	0	0	1	16
171.7734375	0.0999801471916726	351792	21	15	stim15_sf2_pattern2_cont2_shape2.png	0	21	0	205.214518824538	205.314498971729	0.0999801471916726	stim15_sf2_pattern2_cont2_shape2.png	2	2	2	2	1	4	0	0	0	0	0	0	0	0	0	0	0	0	1	16
172.2734375	0.100005366413825	352816	22	8	stim08_sf2_pattern1_cont1_shape1.png	0	22	0	205.714501083108	205.814506449522	0.100005366413825	stim08_sf2_pattern1_cont1_shape1.png	2	1	1	1	1	3	0	0	0	0	0	0	0	0	0	0	0	0	1	16
172.7734375	0.100007419147005	353840	23	4	stim04_sf1_pattern2_cont1_shape1.png	0	23	0	206.214493312065	206.314500731212	0.100007419147005	stim04_sf1_pattern2_cont1_shape1.png	1	2	1	1	1	2	0	0	0	0	0	0	0	0	0	0	0	0	1	16
173.2734375	0.0999983284928021	354864	24	3	stim03_sf1_pattern1_cont2_shape2.png	0	24	0	206.714479382845	206.814477711338	0.0999983284928021	stim03_sf1_pattern1_cont2_shape2.png	1	1	2	2	1	1	0	0	0	0	0	0	0	0	0	0	0	0	1	16
173.7734375	0.100005659664021	355888	25	0	stim00_sf1_pattern1_cont1_shape1.png	0	25	0	207.214441700631	207.314447360295	0.100005659664021	stim00_sf1_pattern1_cont1_shape1.png	1	1	1	1	1	1	0	0	0	0	0	0	0	0	0	0	0	0	1	16
174.2734375	0.0999942230373563	356912	26	14	stim14_sf2_pattern2_cont2_shape1.png	0	26	0	207.714456509595	207.814450732632	0.0999942230373563	stim14_sf2_pattern2_cont2_shape1.png	2	2	2	1	1	4	0	0	0	0	0	0	0	0	0	0	0	0	1	16
174.7734375	0.100008885379793	357936	27	13	stim13_sf2_pattern2_cont1_shape2.png	0	27	0	208.214447272319	208.314456157699	0.100008885379793	stim13_sf2_pattern2_cont1_shape2.png	2	2	1	2	1	4	0	0	0	0	0	0	0	0	0	0	0	0	1	16
175.2734375	0.100015043561143	358960	28	5	stim05_sf1_pattern2_cont1_shape2.png	0	28	0	208.714426011928	208.814441055489	0.100015043561143	stim05_sf1_pattern2_cont1_shape2.png	1	2	1	2	1	2	0	0	0	0	0	0	0	0	0	0	0	0	1	16
175.7734375	0.100005952910578	359984	29	12	stim12_sf2_pattern2_cont1_shape1.png	0	29	0	209.214430557255	209.314436510165	0.100005952910578	stim12_sf2_pattern2_cont1_shape1.png	2	2	1	1	1	4	0	0	0	0	0	0	0	0	0	0	0	0	1	16
176.2734375	0.0999965690134559	361008	30	10	stim10_sf2_pattern1_cont2_shape1.png	0	30	0	209.714428064657	209.814424633671	0.0999965690134559	stim10_sf2_pattern1_cont2_shape1.png	2	1	2	1	1	3	0	0	0	0	0	0	0	0	0	0	0	0	1	16
176.7734375	0.100008005636482	362032	31	2	stim02_sf1_pattern1_cont2_shape1.png	0	31	0	210.214420000371	210.314428006008	0.100008005636482	stim02_sf1_pattern1_cont2_shape1.png	1	1	2	1	1	1	0	0	0	0	0	0	0	0	0	0	0	0	1	16
177.2734375	0.100000674465264	363056	32	5	stim05_sf1_pattern2_cont1_shape2.png	0	32	1	210.714436862061	210.814437536526	0.100000674465264	stim05_sf1_pattern2_cont1_shape2.png	1	2	1	2	1	2	0	0	0	0	0	0	0	0	0	0	0	0	1	16
177.7734375	0.0999780944657687	364080	33	5	stim05_sf1_pattern2_cont1_shape2.png	0	33	1	211.214432023487	211.314410117953	0.0999780944657687	stim05_sf1_pattern2_cont1_shape2.png	1	2	1	2	1	2	0	0	0	0	0	0	0	0	0	0	0	0	1	16
178.2734375	0.0999948095341097	365104	34	10	stim10_sf2_pattern1_cont2_shape1.png	0	34	2	211.714426011928	211.814420821462	0.0999948095341097	stim10_sf2_pattern1_cont2_shape1.png	2	1	2	1	1	3	0	0	0	0	0	0	0	0	0	0	0	0	1	16
178.7734375	0.100005366417463	366128	35	9	stim09_sf2_pattern1_cont1_shape2.png	0	35	2	212.214401232573	212.314406598991	0.100005366417463	stim09_sf2_pattern1_cont1_shape2.png	2	1	1	2	1	3	0	0	0	0	0	0	0	0	0	0	0	0	1	16
179.27294921875	0.0999980352462444	367151	36	11	stim11_sf2_pattern1_cont2_shape2.png	0	36	0	212.714401965692	212.814400000938	0.0999980352462444	stim11_sf2_pattern1_cont2_shape2.png	2	1	2	2	1	3	0	0	0	0	0	0	0	0	0	0	0	0	1	16
179.77294921875	0.0999766282329801	368175	37	1	stim01_sf1_pattern1_cont1_shape2.png	0	37	0	213.214414721926	213.314391350159	0.0999766282329801	stim01_sf1_pattern1_cont1_shape2.png	1	1	1	2	1	1	0	0	0	0	0	0	0	0	0	0	0	0	1	16
180.27294921875	0.0999757484896691	369199	38	10	stim10_sf2_pattern1_cont2_shape1.png	0	38	0	213.714405191407	213.814380939897	0.0999757484896691	stim10_sf2_pattern1_cont2_shape1.png	2	1	2	1	1	3	0	0	0	0	0	0	0	0	0	0	0	0	1	16
180.77294921875	0.0999801471916726	370223	39	5	stim05_sf1_pattern2_cont1_shape2.png	0	39	0	214.214376893091	214.314357040283	0.0999801471916726	stim05_sf1_pattern2_cont1_shape2.png	1	2	1	2	1	2	0	0	0	0	0	0	0	0	0	0	0	0	1	16
181.27294921875	0.0999983284928021	371247	40	9	stim09_sf2_pattern1_cont1_shape2.png	0	40	0	214.714367655819	214.814365984312	0.0999983284928021	stim09_sf2_pattern1_cont1_shape2.png	2	1	1	2	1	3	0	0	0	0	0	0	0	0	0	0	0	0	1	16
181.77294921875	0.100006246153498	372271	41	6	stim06_sf1_pattern2_cont2_shape1.png	0	41	0	215.214333199321	215.314339445475	0.100006246153498	stim06_sf1_pattern2_cont2_shape1.png	1	2	2	1	1	2	0	0	0	0	0	0	0	0	0	0	0	0	1	16
182.27294921875	0.0999997947292286	373295	42	12	stim12_sf2_pattern2_cont1_shape1.png	0	42	0	215.71435182049	215.814351615219	0.0999997947292286	stim12_sf2_pattern2_cont1_shape1.png	2	2	1	1	1	4	0	0	0	0	0	0	0	0	0	0	0	0	1	16
182.77294921875	0.0999980352462444	374319	43	14	stim14_sf2_pattern2_cont2_shape1.png	0	43	0	216.214344342698	216.314342377944	0.0999980352462444	stim14_sf2_pattern2_cont2_shape1.png	2	2	2	1	1	4	0	0	0	0	0	0	0	0	0	0	0	0	1	16
183.27294921875	0.100006246157136	375343	44	2	stim02_sf1_pattern1_cont2_shape1.png	0	44	0	216.714328360747	216.814334606905	0.100006246157136	stim02_sf1_pattern1_cont2_shape1.png	1	1	2	1	1	1	0	0	0	0	0	0	0	0	0	0	0	0	1	16
183.77294921875	0.1000176827838	376367	45	4	stim04_sf1_pattern2_cont1_shape1.png	0	45	0	217.214295077236	217.31431276002	0.1000176827838	stim04_sf1_pattern2_cont1_shape1.png	1	2	1	1	1	2	0	0	0	0	0	0	0	0	0	0	0	0	1	16
184.27294921875	0.100024134211708	377391	46	3	stim03_sf1_pattern1_cont2_shape2.png	0	46	0	217.714306953731	217.814331087942	0.100024134211708	stim03_sf1_pattern1_cont2_shape2.png	1	1	2	2	1	1	0	0	0	0	0	0	0	0	0	0	0	0	1	16
184.77294921875	0.100004486674152	378415	47	8	stim08_sf2_pattern1_cont1_shape1.png	0	47	0	218.214296250226	218.3143007369	0.100004486674152	stim08_sf2_pattern1_cont1_shape1.png	2	1	1	1	1	3	0	0	0	0	0	0	0	0	0	0	0	0	1	16
185.27294921875	0.0999786809552461	379439	48	15	stim15_sf2_pattern2_cont2_shape2.png	0	48	0	218.714326308022	218.814304988977	0.0999786809552461	stim15_sf2_pattern2_cont2_shape2.png	2	2	2	2	1	4	0	0	0	0	0	0	0	0	0	0	0	0	1	16
185.77294921875	0.0999962757632602	380463	49	7	stim07_sf1_pattern2_cont2_shape2.png	0	49	0	219.214278948664	219.314275224428	0.0999962757632602	stim07_sf1_pattern2_cont2_shape2.png	1	2	2	2	1	2	0	0	0	0	0	0	0	0	0	0	0	0	1	16
186.27294921875	0.10001181784537	381487	50	0	stim00_sf1_pattern1_cont1_shape1.png	0	50	0	219.714278215546	219.814290033391	0.10001181784537	stim00_sf1_pattern1_cont1_shape1.png	1	1	1	1	1	1	0	0	0	0	0	0	0	0	0	0	0	0	1	16
186.77294921875	0.0999772147224576	382511	51	13	stim13_sf2_pattern2_cont1_shape2.png	0	51	0	220.21428305412	220.314260268842	0.0999772147224576	stim13_sf2_pattern2_cont1_shape2.png	2	2	1	2	1	4	0	0	0	0	0	0	0	0	0	0	0	0	1	16
187.27294921875	0.0999956892701448	383535	52	10	stim10_sf2_pattern1_cont2_shape1.png	0	52	0	220.714275869574	220.814271558844	0.0999956892701448	stim10_sf2_pattern1_cont2_shape1.png	2	1	2	1	1	3	0	0	0	0	0	0	0	0	0	0	0	0	1	16
187.77294921875	0.0999795606985572	384559	53	7	stim07_sf1_pattern2_cont2_shape2.png	0	53	0	221.214263406582	221.314242967281	0.0999795606985572	stim07_sf1_pattern2_cont2_shape2.png	1	2	2	2	1	2	0	0	0	0	0	0	0	0	0	0	0	0	1	16
188.27294921875	0.0999622591371008	385583	54	2	stim02_sf1_pattern1_cont2_shape1.png	0	54	0	221.714281441262	221.814243700399	0.0999622591371008	stim02_sf1_pattern1_cont2_shape1.png	1	1	2	1	1	1	0	0	0	0	0	0	0	0	0	0	0	0	1	16
188.77294921875	0.09994525082584	386607	55	4	stim04_sf1_pattern2_cont1_shape1.png	0	55	0	222.214257834894	222.31420308572	0.09994525082584	stim04_sf1_pattern2_cont1_shape1.png	1	2	1	1	1	2	0	0	0	0	0	0	0	0	0	0	0	0	1	16
189.27294921875	0.0999722295309766	387631	56	11	stim11_sf2_pattern1_cont2_shape2.png	0	56	0	222.714245958399	222.81421818793	0.0999722295309766	stim11_sf2_pattern1_cont2_shape2.png	2	1	2	2	1	3	0	0	0	0	0	0	0	0	0	0	0	0	1	16
189.77294921875	0.0999540482298471	388655	57	6	stim06_sf1_pattern2_cont2_shape1.png	0	57	0	223.214240240086	223.314194288316	0.0999540482298471	stim06_sf1_pattern2_cont2_shape1.png	1	2	2	1	1	2	0	0	0	0	0	0	0	0	0	0	0	0	1	16
190.27294921875	0.0999657780994312	389679	58	12	stim12_sf2_pattern2_cont1_shape1.png	0	58	0	223.714223671643	223.814189449742	0.0999657780994312	stim12_sf2_pattern2_cont1_shape1.png	2	2	1	1	1	4	0	0	0	0	0	0	0	0	0	0	0	0	1	16
190.77294921875	0.100021788235608	390703	59	0	stim00_sf1_pattern1_cont1_shape1.png	0	59	0	224.214175432546	224.314197220781	0.100021788235608	stim00_sf1_pattern1_cont1_shape1.png	1	1	1	1	1	1	0	0	0	0	0	0	0	0	0	0	0	0	1	16
191.27294921875	0.100000674468902	391727	60	15	stim15_sf2_pattern2_cont2_shape2.png	0	60	0	224.714196986184	224.814197660653	0.100000674468902	stim15_sf2_pattern2_cont2_shape2.png	2	2	2	2	1	4	0	0	0	0	0	0	0	0	0	0	0	0	1	16
191.77294921875	0.0999748687499959	392751	61	3	stim03_sf1_pattern1_cont2_shape2.png	0	61	0	225.21421619385	225.3141910626	0.0999748687499959	stim03_sf1_pattern1_cont2_shape2.png	1	1	2	2	1	1	0	0	0	0	0	0	0	0	0	0	0	0	1	16
192.27294921875	0.0999657780994312	393775	62	8	stim08_sf2_pattern1_cont1_shape1.png	0	62	0	225.7142002119	225.814165989999	0.0999657780994312	stim08_sf2_pattern1_cont1_shape1.png	2	1	1	1	1	3	0	0	0	0	0	0	0	0	0	0	0	0	1	16
192.77294921875	0.100011231352255	394799	63	9	stim09_sf2_pattern1_cont1_shape2.png	0	63	0	226.214180710987	226.31419194234	0.100011231352255	stim09_sf2_pattern1_cont1_shape2.png	2	1	1	2	1	3	0	0	0	0	0	0	0	0	0	0	0	0	1	16
193.27294921875	0.0999904108284682	395823	64	14	stim14_sf2_pattern2_cont2_shape1.png	0	64	0	226.71419933216	226.814189742989	0.0999904108284682	stim14_sf2_pattern2_cont2_shape1.png	2	2	2	1	1	4	0	0	0	0	0	0	0	0	0	0	0	0	1	16
193.77294921875	0.0999789742054418	396847	65	1	stim01_sf1_pattern1_cont1_shape2.png	0	65	0	227.214173673066	227.314152647272	0.0999789742054418	stim01_sf1_pattern1_cont1_shape2.png	1	1	1	2	1	1	0	0	0	0	0	0	0	0	0	0	0	0	1	16
194.27294921875	0.0999939297944366	397871	66	5	stim05_sf1_pattern2_cont1_shape2.png	0	66	0	227.714170007479	227.814163937273	0.0999939297944366	stim05_sf1_pattern2_cont1_shape2.png	1	2	1	2	1	2	0	0	0	0	0	0	0	0	0	0	0	0	1	16
194.77294921875	0.099966951085662	398895	67	7	stim07_sf1_pattern2_cont2_shape2.png	0	67	1	228.214168394625	228.31413534571	0.099966951085662	stim07_sf1_pattern2_cont2_shape2.png	1	2	2	2	1	2	0	0	0	0	0	0	0	0	0	0	0	0	1	16
195.27294921875	0.0999962757668982	399919	68	7	stim07_sf1_pattern2_cont2_shape2.png	0	68	1	228.714150946438	228.814147222205	0.0999962757668982	stim07_sf1_pattern2_cont2_shape2.png	1	2	2	2	1	2	0	0	0	0	0	0	0	0	0	0	0	0	1	16
195.77294921875	0.0999827864106919	400943	69	13	stim13_sf2_pattern2_cont1_shape2.png	0	69	2	229.21414053618	229.314123322591	0.0999827864106919	stim13_sf2_pattern2_cont1_shape2.png	2	2	1	2	1	4	0	0	0	0	0	0	0	0	0	0	0	0	1	16
196.2724609375	0.0999951027806674	401966	70	10	stim10_sf2_pattern1_cont2_shape1.png	0	70	2	229.714135990853	229.814131093633	0.0999951027806674	stim10_sf2_pattern1_cont2_shape1.png	2	1	2	1	1	3	0	0	0	0	0	0	0	0	0	0	0	0	1	16
196.7724609375	0.0999528752399783	402990	71	13	stim13_sf2_pattern2_cont1_shape2.png	0	71	0	230.214154025532	230.314106900772	0.0999528752399783	stim13_sf2_pattern2_cont1_shape2.png	2	2	1	2	1	4	0	0	0	0	0	0	0	0	0	0	0	0	1	16
197.2724609375	0.0999956892737828	404014	72	15	stim15_sf2_pattern2_cont2_shape2.png	0	72	0	230.714121915007	230.814117604281	0.0999956892737828	stim15_sf2_pattern2_cont2_shape2.png	2	2	2	2	1	4	0	0	0	0	0	0	0	0	0	0	0	0	1	16
197.7724609375	0.0999827864143299	405038	73	5	stim05_sf1_pattern2_cont1_shape2.png	0	73	0	231.214109745266	231.31409253168	0.0999827864143299	stim05_sf1_pattern2_cont1_shape2.png	1	2	1	2	1	2	0	0	0	0	0	0	0	0	0	0	0	0	1	16
198.2724609375	0.0999713497913035	406062	74	11	stim11_sf2_pattern1_cont2_shape2.png	0	74	0	231.714110185134	231.814081534925	0.0999713497913035	stim11_sf2_pattern1_cont2_shape2.png	2	1	2	2	1	3	0	0	0	0	0	0	0	0	0	0	0	0	1	16
198.7724609375	0.0999936365442409	407086	75	4	stim04_sf1_pattern2_cont1_shape1.png	0	75	0	232.214080713835	232.314074350379	0.0999936365442409	stim04_sf1_pattern2_cont1_shape1.png	1	2	1	1	1	2	0	0	0	0	0	0	0	0	0	0	0	0	1	16
199.2724609375	0.100003900181036	408110	76	9	stim09_sf2_pattern1_cont1_shape2.png	0	76	0	232.714070010326	232.814073910507	0.100003900181036	stim09_sf2_pattern1_cont1_shape2.png	2	1	1	2	1	3	0	0	0	0	0	0	0	0	0	0	0	0	1	16
199.7724609375	0.099977801215573	409134	77	3	stim03_sf1_pattern1_cont2_shape2.png	0	77	0	233.214081593575	233.31405939479	0.099977801215573	stim03_sf1_pattern1_cont2_shape2.png	1	1	2	2	1	1	0	0	0	0	0	0	0	0	0	0	0	0	1	16
200.2724609375	0.0999918770648947	410158	78	1	stim01_sf1_pattern1_cont1_shape2.png	0	78	0	233.714072063052	233.814063940117	0.0999918770648947	stim01_sf1_pattern1_cont1_shape2.png	1	1	1	2	1	1	0	0	0	0	0	0	0	0	0	0	0	0	1	16
200.7724609375	0.0999936365442409	411182	79	10	stim10_sf2_pattern1_cont2_shape1.png	0	79	0	234.214065171753	234.314058808297	0.0999936365442409	stim10_sf2_pattern1_cont2_shape1.png	2	1	2	1	1	3	0	0	0	0	0	0	0	0	0	0	0	0	1	16
201.2724609375	0.0999992082361132	412206	80	6	stim06_sf1_pattern2_cont2_shape1.png	0	80	0	234.714040978892	234.814040187128	0.0999992082361132	stim06_sf1_pattern2_cont2_shape1.png	1	2	2	1	1	2	0	0	0	0	0	0	0	0	0	0	0	0	1	16
201.7724609375	0.100028239663516	413230	81	12	stim12_sf2_pattern2_cont1_shape1.png	0	81	0	235.214013267072	235.314041506736	0.100028239663516	stim12_sf2_pattern2_cont1_shape1.png	2	2	1	1	1	4	0	0	0	0	0	0	0	0	0	0	0	0	1	16
202.2724609375	0.10005785759131	414254	82	0	stim00_sf1_pattern1_cont1_shape1.png	0	82	0	235.713999044601	235.814056902193	0.10005785759131	stim00_sf1_pattern1_cont1_shape1.png	1	1	1	1	1	1	0	0	0	0	0	0	0	0	0	0	0	0	1	16
202.7724609375	0.100015336807701	415278	83	13	stim13_sf2_pattern2_cont1_shape2.png	0	83	0	236.213991566809	236.314006903616	0.100015336807701	stim13_sf2_pattern2_cont1_shape2.png	2	2	1	2	1	4	0	0	0	0	0	0	0	0	0	0	0	0	1	16
203.2724609375	0.100078384868539	416302	84	8	stim08_sf2_pattern1_cont1_shape1.png	0	84	0	236.713974998365	236.814053383234	0.100078384868539	stim08_sf2_pattern1_cont1_shape1.png	2	1	1	1	1	3	0	0	0	0	0	0	0	0	0	0	0	0	1	16
203.7724609375	0.100019442263147	417326	85	14	stim14_sf2_pattern2_cont2_shape1.png	0	85	0	237.213960775895	237.313980218158	0.100019442263147	stim14_sf2_pattern2_cont2_shape1.png	2	2	2	1	1	4	0	0	0	0	0	0	0	0	0	0	0	0	1	16
204.2724609375	0.100021494989051	418350	86	2	stim02_sf1_pattern1_cont2_shape1.png	0	86	0	237.713957110311	237.8139786053	0.100021494989051	stim02_sf1_pattern1_cont2_shape1.png	1	1	2	1	1	1	0	0	0	0	0	0	0	0	0	0	0	0	1	16
204.7724609375	0.100001260962017	419374	87	7	stim07_sf1_pattern2_cont2_shape2.png	0	87	0	238.213963415117	238.313964676079	0.100001260962017	stim07_sf1_pattern2_cont2_shape2.png	1	2	2	2	1	2	0	0	0	0	0	0	0	0	0	0	0	0	1	16
205.2724609375	0.100016509793932	420398	88	11	stim11_sf2_pattern1_cont2_shape2.png	0	88	0	238.713977930835	238.813994440628	0.100016509793932	stim11_sf2_pattern1_cont2_shape2.png	2	1	2	2	1	3	0	0	0	0	0	0	0	0	0	0	0	0	1	16
205.7724609375	0.0999751619965537	421422	89	7	stim07_sf1_pattern2_cont2_shape2.png	0	89	0	239.21397602473	239.313951186727	0.0999751619965537	stim07_sf1_pattern2_cont2_shape2.png	1	2	2	2	1	2	0	0	0	0	0	0	0	0	0	0	0	0	1	16
206.2724609375	0.0999959825167025	422446	90	10	stim10_sf2_pattern1_cont2_shape1.png	0	90	0	239.713969426677	239.813965409194	0.0999959825167025	stim10_sf2_pattern1_cont2_shape1.png	2	1	2	1	1	3	0	0	0	0	0	0	0	0	0	0	0	0	1	16
206.7724609375	0.100002727194806	423470	91	6	stim06_sf1_pattern2_cont2_shape1.png	0	91	0	240.213936143165	240.31393887036	0.100002727194806	stim06_sf1_pattern2_cont2_shape1.png	1	2	2	1	1	2	0	0	0	0	0	0	0	0	0	0	0	0	1	16
207.2724609375	0.100000381222344	424494	92	5	stim05_sf1_pattern2_cont1_shape2.png	0	92	0	240.713948606153	240.813948987376	0.100000381222344	stim05_sf1_pattern2_cont1_shape2.png	1	2	1	2	1	2	0	0	0	0	0	0	0	0	0	0	0	0	1	16
207.7724609375	0.100005073167267	425518	93	4	stim04_sf1_pattern2_cont1_shape1.png	0	93	0	241.213939662128	241.313944735295	0.100005073167267	stim04_sf1_pattern2_cont1_shape1.png	1	2	1	1	1	2	0	0	0	0	0	0	0	0	0	0	0	0	1	16
208.2724609375	0.0999857188799069	426542	94	9	stim09_sf2_pattern1_cont1_shape2.png	0	94	0	241.713966200961	241.813951919841	0.0999857188799069	stim09_sf2_pattern1_cont1_shape2.png	2	1	1	2	1	3	0	0	0	0	0	0	0	0	0	0	0	0	1	16
208.7724609375	0.0999684173184505	427566	95	8	stim08_sf2_pattern1_cont1_shape1.png	0	95	0	242.21395315148	242.313921568799	0.0999684173184505	stim08_sf2_pattern1_cont1_shape1.png	2	1	1	1	1	3	0	0	0	0	0	0	0	0	0	0	0	0	1	16
209.2724609375	0.0999405588736408	428590	96	12	stim12_sf2_pattern2_cont1_shape1.png	0	96	0	242.713936583037	242.813877141911	0.0999405588736408	stim12_sf2_pattern2_cont1_shape1.png	2	2	1	1	1	4	0	0	0	0	0	0	0	0	0	0	0	0	1	16
209.7724609375	0.0999918770648947	429614	97	3	stim03_sf1_pattern1_cont2_shape2.png	0	97	0	243.213927345761	243.313919222826	0.0999918770648947	stim03_sf1_pattern1_cont2_shape2.png	1	1	2	2	1	1	0	0	0	0	0	0	0	0	0	0	0	0	1	16
210.2724609375	0.0999742822568805	430638	98	13	stim13_sf2_pattern2_cont1_shape2.png	0	98	0	243.713942154725	243.813916436982	0.0999742822568805	stim13_sf2_pattern2_cont1_shape2.png	2	2	1	2	1	4	0	0	0	0	0	0	0	0	0	0	0	0	1	16
210.7724609375	0.0999789742054418	431662	99	14	stim14_sf2_pattern2_cont2_shape1.png	0	99	0	244.21391209693	244.313891071135	0.0999789742054418	stim14_sf2_pattern2_cont2_shape1.png	2	2	2	1	1	4	0	0	0	0	0	0	0	0	0	0	0	0	1	16
211.2724609375	0.0999995014790329	432686	100	1	stim01_sf1_pattern1_cont1_shape2.png	0	100	0	244.71390432589	244.813903827369	0.0999995014790329	stim01_sf1_pattern1_cont1_shape2.png	1	1	1	2	1	1	0	0	0	0	0	0	0	0	0	0	0	0	1	16
211.7724609375	0.0999566874488664	433710	101	15	stim15_sf2_pattern2_cont2_shape2.png	0	101	0	245.213895968354	245.313852655803	0.0999566874488664	stim15_sf2_pattern2_cont2_shape2.png	2	2	2	2	1	4	0	0	0	0	0	0	0	0	0	0	0	0	1	16
212.2724609375	0.0999980352462444	434734	102	0	stim00_sf1_pattern1_cont1_shape1.png	0	102	0	245.713887904069	245.813885939315	0.0999980352462444	stim00_sf1_pattern1_cont1_shape1.png	1	1	1	1	1	1	0	0	0	0	0	0	0	0	0	0	0	0	1	16
212.7724609375	0.0999789742054418	435758	103	2	stim02_sf1_pattern1_cont2_shape1.png	0	103	0	246.213881599262	246.313860573468	0.0999789742054418	stim02_sf1_pattern1_cont2_shape1.png	1	1	2	1	1	1	0	0	0	0	0	0	0	0	0	0	0	0	1	16
213.27197265625	0.0999951027770294	436781	104	13	stim13_sf2_pattern2_cont1_shape2.png	0	104	0	246.713874121469	246.813869224246	0.0999951027770294	stim13_sf2_pattern2_cont1_shape2.png	2	2	1	2	1	4	0	0	0	0	0	0	0	0	0	0	0	0	1	16
213.77197265625	0.0999983284928021	437805	105	1	stim01_sf1_pattern1_cont1_shape2.png	0	105	0	247.21386810991	247.313866438402	0.0999983284928021	stim01_sf1_pattern1_cont1_shape2.png	1	1	1	2	1	1	0	0	0	0	0	0	0	0	0	0	0	0	1	16
214.27197265625	0.0999951027770294	438829	106	3	stim03_sf1_pattern1_cont2_shape2.png	0	106	0	247.71386033887	247.813855441647	0.0999951027770294	stim03_sf1_pattern1_cont2_shape2.png	1	1	2	2	1	1	0	0	0	0	0	0	0	0	0	0	0	0	1	16
214.77197265625	0.0999634321233316	439853	107	5	stim05_sf1_pattern2_cont1_shape2.png	0	107	0	248.213874561341	248.313837993464	0.0999634321233316	stim05_sf1_pattern2_cont1_shape2.png	1	2	1	2	1	2	0	0	0	0	0	0	0	0	0	0	0	0	1	16
215.27197265625	0.100009471872909	440877	108	2	stim02_sf1_pattern1_cont2_shape1.png	0	108	0	248.713829841203	248.813839313076	0.100009471872909	stim02_sf1_pattern1_cont2_shape1.png	1	1	2	1	1	1	0	0	0	0	0	0	0	0	0	0	0	0	1	16
215.77197265625	0.0999995014790329	441901	109	9	stim09_sf2_pattern1_cont1_shape2.png	0	109	0	249.21383526627	249.313834767749	0.0999995014790329	stim09_sf2_pattern1_cont1_shape2.png	2	1	1	2	1	3	0	0	0	0	0	0	0	0	0	0	0	0	1	16
216.27197265625	0.0999951027770294	442925	110	12	stim12_sf2_pattern2_cont1_shape1.png	0	110	0	249.713828081723	249.813823184501	0.0999951027770294	stim12_sf2_pattern2_cont1_shape1.png	2	2	1	1	1	4	0	0	0	0	0	0	0	0	0	0	0	0	1	16
216.77197265625	0.0999751619965537	443949	111	8	stim08_sf2_pattern1_cont1_shape1.png	0	111	1	250.21382324315	250.313798405146	0.0999751619965537	stim08_sf2_pattern1_cont1_shape1.png	2	1	1	1	1	3	0	0	0	0	0	0	0	0	0	0	0	0	1	16
217.27197265625	0.099980733684788	444973	112	8	stim08_sf2_pattern1_cont1_shape1.png	0	112	1	250.713832187179	250.813812920864	0.099980733684788	stim08_sf2_pattern1_cont1_shape1.png	2	1	1	1	1	3	0	0	0	0	0	0	0	0	0	0	0	0	1	16
217.77197265625	0.0999253100417263	445997	113	13	stim13_sf2_pattern2_cont1_shape2.png	0	113	2	251.213826762112	251.313752072154	0.0999253100417263	stim13_sf2_pattern2_cont1_shape2.png	2	2	1	2	1	4	0	0	0	0	0	0	0	0	0	0	0	0	1	16
218.27197265625	0.0999842526471184	447021	114	5	stim05_sf1_pattern2_cont1_shape2.png	0	114	2	251.713781455484	251.813765708132	0.0999842526471184	stim05_sf1_pattern2_cont1_shape2.png	1	2	1	2	1	2	0	0	0	0	0	0	0	0	0	0	0	0	1	16
218.77197265625	0.0999552212160779	448045	115	10	stim10_sf2_pattern1_cont2_shape1.png	0	115	0	252.213795677952	252.313750899168	0.0999552212160779	stim10_sf2_pattern1_cont2_shape1.png	2	1	2	1	1	3	0	0	0	0	0	0	0	0	0	0	0	0	1	16
219.27197265625	0.0999936365442409	449069	116	8	stim08_sf2_pattern1_cont1_shape1.png	0	116	0	252.71376356743	252.813757203974	0.0999936365442409	stim08_sf2_pattern1_cont1_shape1.png	2	1	1	1	1	3	0	0	0	0	0	0	0	0	0	0	0	0	1	16
219.77197265625	0.100007712389925	450093	117	7	stim07_sf1_pattern2_cont2_shape2.png	0	117	0	253.213730870411	253.313738582801	0.100007712389925	stim07_sf1_pattern2_cont2_shape2.png	1	2	2	2	1	2	0	0	0	0	0	0	0	0	0	0	0	0	1	16
220.27197265625	0.100023547718592	451117	118	14	stim14_sf2_pattern2_cont2_shape1.png	0	118	0	253.713722806126	253.813746353844	0.100023547718592	stim14_sf2_pattern2_cont2_shape1.png	2	2	2	1	1	4	0	0	0	0	0	0	0	0	0	0	0	0	1	16
220.77197265625	0.100016803040489	452141	119	0	stim00_sf1_pattern1_cont1_shape1.png	0	119	0	254.213703305213	254.313720108254	0.100016803040489	stim00_sf1_pattern1_cont1_shape1.png	1	1	1	1	1	1	0	0	0	0	0	0	0	0	0	0	0	0	1	16
221.27197265625	0.100025307197939	453165	120	4	stim04_sf1_pattern2_cont1_shape1.png	0	120	0	254.713695240927	254.813720548125	0.100025307197939	stim04_sf1_pattern2_cont1_shape1.png	1	2	1	1	1	2	0	0	0	0	0	0	0	0	0	0	0	0	1	16
221.77197265625	0.0999912905717792	454189	121	15	stim15_sf2_pattern2_cont2_shape2.png	0	121	0	255.21372559197	255.313716882541	0.0999912905717792	stim15_sf2_pattern2_cont2_shape2.png	2	2	2	2	1	4	0	0	0	0	0	0	0	0	0	0	0	0	1	16
222.27197265625	0.100007125896809	455213	122	11	stim11_sf2_pattern1_cont2_shape2.png	0	122	0	255.713716354698	255.813723480594	0.100007125896809	stim11_sf2_pattern1_cont2_shape2.png	2	1	2	2	1	3	0	0	0	0	0	0	0	0	0	0	0	0	1	16
222.77197265625	0.100036157331488	456237	123	6	stim06_sf1_pattern2_cont2_shape1.png	0	123	0	256.213684830665	256.313720987997	0.100036157331488	stim06_sf1_pattern2_cont2_shape1.png	1	2	2	1	1	2	0	0	0	0	0	0	0	0	0	0	0	0	1	16
223.27197265625	0.099994516283914	457261	124	5	stim05_sf1_pattern2_cont1_shape2.png	0	124	0	256.713732483269	256.813726999553	0.099994516283914	stim05_sf1_pattern2_cont1_shape2.png	1	2	1	2	1	2	0	0	0	0	0	0	0	0	0	0	0	0	1	16
223.77197265625	0.0999983284928021	458285	125	10	stim10_sf2_pattern1_cont2_shape1.png	0	125	0	257.213705064696	257.313703393189	0.0999983284928021	stim10_sf2_pattern1_cont2_shape1.png	2	1	2	1	1	3	0	0	0	0	0	0	0	0	0	0	0	0	1	16
224.27197265625	0.0999877716058108	459309	126	2	stim02_sf1_pattern1_cont2_shape1.png	0	126	0	257.713716354698	257.813704126303	0.0999877716058108	stim02_sf1_pattern1_cont2_shape1.png	1	1	2	1	1	1	0	0	0	0	0	0	0	0	0	0	0	0	1	16
224.77197265625	0.0999517022537475	460333	127	6	stim06_sf1_pattern2_cont2_shape1.png	0	127	0	258.213721486514	258.313673188768	0.0999517022537475	stim06_sf1_pattern2_cont2_shape1.png	1	2	2	1	1	2	0	0	0	0	0	0	0	0	0	0	0	0	1	16
225.27197265625	0.0999901175855484	461357	128	8	stim08_sf2_pattern1_cont1_shape1.png	0	128	0	258.713710196513	258.813700314098	0.0999901175855484	stim08_sf2_pattern1_cont1_shape1.png	2	1	1	1	1	3	0	0	0	0	0	0	0	0	0	0	0	0	1	16
225.77197265625	0.100000381222344	462381	129	7	stim07_sf1_pattern2_cont2_shape2.png	0	129	0	259.213665769625	259.313666150847	0.100000381222344	stim07_sf1_pattern2_cont2_shape2.png	1	2	2	2	1	2	0	0	0	0	0	0	0	0	0	0	0	0	1	16
226.27197265625	0.0999983284928021	463405	130	0	stim00_sf1_pattern1_cont1_shape1.png	0	130	0	259.713662690534	259.813661019027	0.0999983284928021	stim00_sf1_pattern1_cont1_shape1.png	1	1	1	1	1	1	0	0	0	0	0	0	0	0	0	0	0	0	1	16
226.77197265625	0.0999772147224576	464429	131	4	stim04_sf1_pattern2_cont1_shape1.png	0	131	0	260.213669288587	260.313646503309	0.0999772147224576	stim04_sf1_pattern2_cont1_shape1.png	1	2	1	1	1	2	0	0	0	0	0	0	0	0	0	0	0	0	1	16
227.27197265625	0.0999942230373563	465453	132	13	stim13_sf2_pattern2_cont1_shape2.png	0	132	0	260.713662104041	260.813656327078	0.0999942230373563	stim13_sf2_pattern2_cont1_shape2.png	2	2	1	2	1	4	0	0	0	0	0	0	0	0	0	0	0	0	1	16
227.77197265625	0.0999563942023087	466477	133	11	stim11_sf2_pattern1_cont2_shape2.png	0	133	0	261.213657558714	261.313613952916	0.0999563942023087	stim11_sf2_pattern1_cont2_shape2.png	2	1	2	2	1	3	0	0	0	0	0	0	0	0	0	0	0	0	1	16
228.27197265625	0.0999989149859175	467501	134	12	stim12_sf2_pattern2_cont1_shape1.png	0	134	0	261.713643629493	261.813642544479	0.0999989149859175	stim12_sf2_pattern2_cont1_shape1.png	2	2	1	1	1	4	0	0	0	0	0	0	0	0	0	0	0	0	1	16
228.77197265625	0.0999613793974277	468525	135	9	stim09_sf2_pattern1_cont1_shape2.png	0	135	0	262.21363879092	262.313600170317	0.0999613793974277	stim09_sf2_pattern1_cont1_shape2.png	2	1	1	2	1	3	0	0	0	0	0	0	0	0	0	0	0	0	1	16
229.27197265625	0.100003020441363	469549	136	3	stim03_sf1_pattern1_cont2_shape2.png	0	136	0	262.713630726634	262.813633747075	0.100003020441363	stim03_sf1_pattern1_cont2_shape2.png	1	1	2	2	1	1	0	0	0	0	0	0	0	0	0	0	0	0	1	16
229.77197265625	0.099975748493307	470573	137	15	stim15_sf2_pattern2_cont2_shape2.png	0	137	0	263.213626474553	263.313602223046	0.099975748493307	stim15_sf2_pattern2_cont2_shape2.png	2	2	2	2	1	4	0	0	0	0	0	0	0	0	0	0	0	0	1	16
230.27197265625	0.0999874783628911	471597	138	1	stim01_sf1_pattern1_cont1_shape2.png	0	138	0	263.713605507408	263.813592985771	0.0999874783628911	stim01_sf1_pattern1_cont1_shape2.png	1	1	1	2	1	1	0	0	0	0	0	0	0	0	0	0	0	0	1	16
230.771484375	0.0999783877086884	472620	139	14	stim14_sf2_pattern2_cont2_shape1.png	0	139	0	264.213609172995	264.313587560704	0.0999783877086884	stim14_sf2_pattern2_cont2_shape1.png	2	2	2	1	1	4	0	0	0	0	0	0	0	0	0	0	0	0	1	16
231.271484375	0.0999965690134559	473644	140	12	stim12_sf2_pattern2_cont1_shape1.png	0	140	0	264.713599349227	264.81359591824	0.0999965690134559	stim12_sf2_pattern2_cont1_shape1.png	2	2	1	1	1	4	0	0	0	0	0	0	0	0	0	0	0	0	1	16
231.771484375	0.100000087972148	474668	141	7	stim07_sf1_pattern2_cont2_shape2.png	0	141	0	265.213591578187	265.313591666159	0.100000087972148	stim07_sf1_pattern2_cont2_shape2.png	1	2	2	2	1	2	0	0	0	0	0	0	0	0	0	0	0	0	1	16
232.271484375	0.0999722295309766	475692	142	9	stim09_sf2_pattern1_cont1_shape2.png	0	142	0	265.713605214161	265.813577443692	0.0999722295309766	stim09_sf2_pattern1_cont1_shape2.png	2	1	1	2	1	3	0	0	0	0	0	0	0	0	0	0	0	0	1	16
232.771484375	0.0999804404382303	476716	143	4	stim04_sf1_pattern2_cont1_shape1.png	0	143	0	266.213568118445	266.313548558883	0.0999804404382303	stim04_sf1_pattern2_cont1_shape1.png	1	2	1	1	1	2	0	0	0	0	0	0	0	0	0	0	0	0	1	16
233.271484375	0.0999930500511255	477740	144	10	stim10_sf2_pattern1_cont2_shape1.png	0	144	0	266.713529263245	266.813522313296	0.0999930500511255	stim10_sf2_pattern1_cont2_shape1.png	2	1	2	1	1	3	0	0	0	0	0	0	0	0	0	0	0	0	1	16
233.771484375	0.099983666154003	478764	145	0	stim00_sf1_pattern1_cont1_shape1.png	0	145	0	267.213542899219	267.313526565373	0.099983666154003	stim00_sf1_pattern1_cont1_shape1.png	1	1	1	1	1	1	0	0	0	0	0	0	0	0	0	0	0	0	1	16
234.271484375	0.0999933432976832	479788	146	1	stim01_sf1_pattern1_cont1_shape2.png	0	146	0	267.713513721163	267.81350706446	0.0999933432976832	stim01_sf1_pattern1_cont1_shape2.png	1	1	1	2	1	1	0	0	0	0	0	0	0	0	0	0	0	0	1	16
234.771484375	0.0999827864143299	480812	147	14	stim14_sf2_pattern2_cont2_shape1.png	0	147	0	268.213502431161	268.313485217575	0.0999827864143299	stim14_sf2_pattern2_cont2_shape1.png	2	2	2	1	1	4	0	0	0	0	0	0	0	0	0	0	0	0	1	16
235.271484375	0.0999839594005607	481836	148	8	stim08_sf2_pattern1_cont1_shape1.png	0	148	0	268.713507856228	268.813491815628	0.0999839594005607	stim08_sf2_pattern1_cont1_shape1.png	2	1	1	1	1	3	0	0	0	0	0	0	0	0	0	0	0	0	1	16
235.771484375	0.0999854256333492	482860	149	5	stim05_sf1_pattern2_cont1_shape2.png	0	149	0	269.213486889083	269.313472314716	0.0999854256333492	stim05_sf1_pattern2_cont1_shape2.png	1	2	1	2	1	2	0	0	0	0	0	0	0	0	0	0	0	0	1	16
236.271484375	0.10001797602672	483884	150	6	stim06_sf1_pattern2_cont2_shape1.png	0	150	0	269.713482637006	269.813500613032	0.10001797602672	stim06_sf1_pattern2_cont2_shape1.png	1	2	2	1	1	2	0	0	0	0	0	0	0	0	0	0	0	0	1	16
236.771484375	0.100002727194806	484908	151	2	stim02_sf1_pattern1_cont2_shape1.png	0	151	0	270.213465188819	270.313467916014	0.100002727194806	stim02_sf1_pattern1_cont2_shape1.png	1	1	2	1	1	1	0	0	0	0	0	0	0	0	0	0	0	0	1	16
237.271484375	0.100034984341619	485932	152	3	stim03_sf1_pattern1_cont2_shape2.png	0	152	0	270.71345741778	270.813492402121	0.100034984341619	stim03_sf1_pattern1_cont2_shape2.png	1	1	2	2	1	1	0	0	0	0	0	0	0	0	0	0	0	0	1	16
237.771484375	0.0999915838183369	486956	153	15	stim15_sf2_pattern2_cont2_shape2.png	0	153	0	271.213486302589	271.313477886408	0.0999915838183369	stim15_sf2_pattern2_cont2_shape2.png	2	2	2	2	1	4	0	0	0	0	0	0	0	0	0	0	0	0	1	16
238.271484375	0.0999863053766603	487980	154	11	stim11_sf2_pattern1_cont2_shape2.png	0	154	0	271.713489088434	271.81347539381	0.0999863053766603	stim11_sf2_pattern1_cont2_shape2.png	2	1	2	2	1	3	0	0	0	0	0	0	0	0	0	0	0	0	1	16
238.771484375	0.0999986217393598	489004	155	13	stim13_sf2_pattern2_cont1_shape2.png	0	155	0	272.213498912202	272.313497533942	0.0999986217393598	stim13_sf2_pattern2_cont1_shape2.png	2	2	1	2	1	4	0	0	0	0	0	0	0	0	0	0	0	0	1	16
239.271484375	0.0999757484896691	490028	156	15	stim15_sf2_pattern2_cont2_shape2.png	0	156	0	272.71349143441	272.813467182899	0.0999757484896691	stim15_sf2_pattern2_cont2_shape2.png	2	2	2	2	1	4	0	0	0	0	0	0	0	0	0	0	0	0	1	16
239.771484375	0.0999983284928021	491052	157	5	stim05_sf1_pattern2_cont1_shape2.png	0	157	0	273.213471347004	273.313469675497	0.0999983284928021	stim05_sf1_pattern2_cont1_shape2.png	1	2	1	2	1	2	0	0	0	0	0	0	0	0	0	0	0	0	1	16
240.271484375	0.100020615249377	492076	158	4	stim04_sf1_pattern2_cont1_shape1.png	0	158	0	273.713465628691	273.81348624394	0.100020615249377	stim04_sf1_pattern2_cont1_shape1.png	1	2	1	1	1	2	0	0	0	0	0	0	0	0	0	0	0	0	1	16
240.771484375	0.0999675375787774	493100	159	14	stim14_sf2_pattern2_cont2_shape1.png	0	159	0	274.213471933497	274.313439471076	0.0999675375787774	stim14_sf2_pattern2_cont2_shape1.png	2	2	2	1	1	4	0	0	0	0	0	0	0	0	0	0	0	0	1	16
241.271484375	0.100008298886678	494124	160	12	stim12_sf2_pattern2_cont1_shape1.png	0	160	0	274.713448913622	274.813457212509	0.100008298886678	stim12_sf2_pattern2_cont1_shape1.png	2	2	1	1	1	4	0	0	0	0	0	0	0	0	0	0	0	0	1	16
241.771484375	0.0999669510893	495148	161	1	stim01_sf1_pattern1_cont1_shape2.png	0	161	0	275.213451699467	275.313418650556	0.0999669510893	stim01_sf1_pattern1_cont1_shape2.png	1	1	1	2	1	1	0	0	0	0	0	0	0	0	0	0	0	0	1	16
242.271484375	0.0999983284928021	496172	162	7	stim07_sf1_pattern2_cont2_shape2.png	0	162	0	275.713432785051	275.813431113544	0.0999983284928021	stim07_sf1_pattern2_cont2_shape2.png	1	2	2	2	1	2	0	0	0	0	0	0	0	0	0	0	0	0	1	16
242.771484375	0.0999775079690153	497196	163	9	stim09_sf2_pattern1_cont1_shape2.png	0	163	0	276.213425600505	276.313403108474	0.0999775079690153	stim09_sf2_pattern1_cont1_shape2.png	2	1	1	2	1	3	0	0	0	0	0	0	0	0	0	0	0	0	1	16
243.271484375	0.0999602064111969	498220	164	13	stim13_sf2_pattern2_cont1_shape2.png	0	164	0	276.713438649986	276.813398856397	0.0999602064111969	stim13_sf2_pattern2_cont1_shape2.png	2	2	1	2	1	4	0	0	0	0	0	0	0	0	0	0	0	0	1	16
243.771484375	0.0999898243353528	499244	165	8	stim08_sf2_pattern1_cont1_shape1.png	0	165	0	277.213411524659	277.313401348994	0.0999898243353528	stim08_sf2_pattern1_cont1_shape1.png	2	1	1	1	1	3	0	0	0	0	0	0	0	0	0	0	0	0	1	16
244.271484375	0.0999995014790329	500268	166	6	stim06_sf1_pattern2_cont2_shape1.png	0	166	0	277.713401994137	277.813401495616	0.0999995014790329	stim06_sf1_pattern2_cont2_shape1.png	1	2	2	1	1	2	0	0	0	0	0	0	0	0	0	0	0	0	1	16
244.771484375	0.0999789742054418	501292	167	0	stim00_sf1_pattern1_cont1_shape1.png	0	167	0	278.21339656907	278.313375543275	0.0999789742054418	stim00_sf1_pattern1_cont1_shape1.png	1	1	1	1	1	1	0	0	0	0	0	0	0	0	0	0	0	0	1	16
245.271484375	0.099997448753129	502316	168	10	stim10_sf2_pattern1_cont2_shape1.png	0	168	0	278.713388798031	278.813386246784	0.099997448753129	stim10_sf2_pattern1_cont2_shape1.png	2	1	2	1	1	3	0	0	0	0	0	0	0	0	0	0	0	0	1	16
245.771484375	0.100001847455133	503340	169	3	stim03_sf1_pattern1_cont2_shape2.png	0	169	0	279.213359033482	279.313360880937	0.100001847455133	stim03_sf1_pattern1_cont2_shape2.png	1	1	2	2	1	1	0	0	0	0	0	0	0	0	0	0	0	0	1	16
246.271484375	0.099977801215573	504364	170	11	stim11_sf2_pattern1_cont2_shape2.png	0	170	0	279.713373549199	279.813351350414	0.099977801215573	stim11_sf2_pattern1_cont2_shape2.png	2	1	2	2	1	3	0	0	0	0	0	0	0	0	0	0	0	0	1	16
246.771484375	0.0999795606985572	505388	171	2	stim02_sf1_pattern1_cont2_shape1.png	0	171	0	280.213364018677	280.313343579375	0.0999795606985572	stim02_sf1_pattern1_cont2_shape1.png	1	1	2	1	1	1	0	0	0	0	0	0	0	0	0	0	0	0	1	16
289.05322265625	0.0999657780994312	591981	172	7	stim07_sf1_pattern2_cont2_shape2.png	1	0	0	322.49607474509	322.596040523189	0.0999657780994312	stim07_sf1_pattern2_cont2_shape2.png	1	2	2	2	1	2	0	0	0	0	0	0	0	0	0	0	0	0	1	16
289.55322265625	0.0999989149895555	593005	173	2	stim02_sf1_pattern1_cont2_shape1.png	1	1	0	322.9960347169	323.096033631889	0.0999989149895555	stim02_sf1_pattern1_cont2_shape1.png	1	1	2	1	1	1	0	0	0	0	0	0	0	0	0	0	0	0	1	16
290.05322265625	0.0999660713496269	594029	174	14	stim14_sf2_pattern2_cont2_shape1.png	1	2	0	323.496055977292	323.596022048641	0.0999660713496269	stim14_sf2_pattern2_cont2_shape1.png	2	2	2	1	1	4	0	0	0	0	0	0	0	0	0	0	0	0	1	16
290.55322265625	0.099936453421833	595053	175	4	stim04_sf1_pattern2_cont1_shape1.png	1	3	0	323.996062868591	324.095999322013	0.099936453421833	stim04_sf1_pattern2_cont1_shape1.png	1	2	1	1	1	2	0	0	0	0	0	0	0	0	0	0	0	0	1	16
291.05322265625	0.099977801215573	596077	176	6	stim06_sf1_pattern2_cont2_shape1.png	1	4	0	324.496048059631	324.596025860847	0.099977801215573	stim06_sf1_pattern2_cont2_shape1.png	1	2	2	1	1	2	0	0	0	0	0	0	0	0	0	0	0	0	1	16
291.55322265625	0.0999971555065713	597101	177	0	stim00_sf1_pattern1_cont1_shape1.png	1	5	0	324.996023573523	325.09602072903	0.0999971555065713	stim00_sf1_pattern1_cont1_shape1.png	1	1	1	1	1	1	0	0	0	0	0	0	0	0	0	0	0	0	1	16
292.05322265625	0.100005073170905	598125	178	15	stim15_sf2_pattern2_cont2_shape2.png	1	6	0	325.496008178066	325.596013251237	0.100005073170905	stim15_sf2_pattern2_cont2_shape2.png	2	2	2	2	1	4	0	0	0	0	0	0	0	0	0	0	0	0	1	16
292.55322265625	0.0999995014826709	599149	179	11	stim11_sf2_pattern1_cont2_shape2.png	1	7	0	325.996006565209	326.096006066691	0.0999995014826709	stim11_sf2_pattern1_cont2_shape2.png	2	1	2	2	1	3	0	0	0	0	0	0	0	0	0	0	0	0	1	16
293.05322265625	0.100023547718592	600173	180	1	stim01_sf1_pattern1_cont1_shape2.png	1	8	0	326.49597298845	326.595996536169	0.100023547718592	stim01_sf1_pattern1_cont1_shape2.png	1	1	1	2	1	1	0	0	0	0	0	0	0	0	0	0	0	0	1	16
293.55322265625	0.100015043561143	601197	181	3	stim03_sf1_pattern1_cont2_shape2.png	1	9	0	326.995992489363	327.096007532924	0.100015043561143	stim03_sf1_pattern1_cont2_shape2.png	1	1	2	2	1	1	0	0	0	0	0	0	0	0	0	0	0	0	1	16
294.05322265625	0.100035277591815	602221	182	13	stim13_sf2_pattern2_cont1_shape2.png	1	10	0	327.495946009745	327.595981287337	0.100035277591815	stim13_sf2_pattern2_cont1_shape2.png	2	2	1	2	1	4	0	0	0	0	0	0	0	0	0	0	0	0	1	16
294.55322265625	0.0999971555065713	603245	183	5	stim05_sf1_pattern2_cont1_shape2.png	1	11	0	327.995977827024	328.095974982531	0.0999971555065713	stim05_sf1_pattern2_cont1_shape2.png	1	2	1	2	1	2	0	0	0	0	0	0	0	0	0	0	0	0	1	16
295.05322265625	0.100005659660383	604269	184	8	stim08_sf2_pattern1_cont1_shape1.png	1	12	0	328.495960378841	328.595966038502	0.100005659660383	stim08_sf2_pattern1_cont1_shape1.png	2	1	1	1	1	3	0	0	0	0	0	0	0	0	0	0	0	0	1	16
295.55322265625	0.0999980352462444	605293	185	10	stim10_sf2_pattern1_cont2_shape1.png	1	13	0	328.995960525463	329.095958560709	0.0999980352462444	stim10_sf2_pattern1_cont2_shape1.png	2	1	2	1	1	3	0	0	0	0	0	0	0	0	0	0	0	0	1	16
296.05322265625	0.100005659664021	606317	186	9	stim09_sf2_pattern1_cont1_shape2.png	1	14	0	329.495945423252	329.595951082916	0.100005659664021	stim09_sf2_pattern1_cont1_shape2.png	2	1	1	2	1	3	0	0	0	0	0	0	0	0	0	0	0	0	1	16
296.55322265625	0.100016803040489	607341	187	12	stim12_sf2_pattern2_cont1_shape1.png	1	15	0	329.995926802083	330.095943605123	0.100016803040489	stim12_sf2_pattern2_cont1_shape1.png	2	2	1	1	1	4	0	0	0	0	0	0	0	0	0	0	0	0	1	16
297.05322265625	0.100010058366024	608365	188	5	stim05_sf1_pattern2_cont1_shape2.png	1	16	0	330.495931347406	330.595941405772	0.100010058366024	stim05_sf1_pattern2_cont1_shape2.png	1	2	1	2	1	2	0	0	0	0	0	0	0	0	0	0	0	0	1	16
297.55322265625	0.100016803040489	609389	189	9	stim09_sf2_pattern1_cont1_shape2.png	1	17	0	330.995913605977	331.095930409017	0.100016803040489	stim09_sf2_pattern1_cont1_shape2.png	2	1	1	2	1	3	0	0	0	0	0	0	0	0	0	0	0	0	1	16
298.05322265625	0.100008592129598	610413	190	6	stim06_sf1_pattern2_cont2_shape1.png	1	18	0	331.495916685068	331.595925277197	0.100008592129598	stim06_sf1_pattern2_cont2_shape1.png	1	2	2	1	1	2	0	0	0	0	0	0	0	0	0	0	0	0	1	16
298.55322265625	0.100001847455133	611437	191	13	stim13_sf2_pattern2_cont1_shape2.png	1	19	1	331.995896890909	332.095898738364	0.100001847455133	stim13_sf2_pattern2_cont1_shape2.png	2	2	1	2	1	4	0	0	0	0	0	0	0	0	0	0	0	0	1	16
299.05322265625	0.0999977419996867	612461	192	13	stim13_sf2_pattern2_cont1_shape2.png	1	20	1	332.495911699873	332.595909441872	0.0999977419996867	stim13_sf2_pattern2_cont1_shape2.png	2	2	1	2	1	4	0	0	0	0	0	0	0	0	0	0	0	0	1	16
299.55322265625	0.09998659861958	613485	193	3	stim03_sf1_pattern1_cont2_shape2.png	1	21	2	332.995875777142	333.095862375761	0.09998659861958	stim03_sf1_pattern1_cont2_shape2.png	1	1	2	2	1	1	0	0	0	0	0	0	0	0	0	0	0	0	1	16
300.05322265625	0.100008885376155	614509	194	5	stim05_sf1_pattern2_cont1_shape2.png	1	22	2	333.495861261425	333.595870146801	0.100008885376155	stim05_sf1_pattern2_cont1_shape2.png	1	2	1	2	1	2	0	0	0	0	0	0	0	0	0	0	0	0	1	16
300.55322265625	0.0999918770612567	615533	195	13	stim13_sf2_pattern2_cont1_shape2.png	1	23	0	333.995875777142	334.095867654203	0.0999918770612567	stim13_sf2_pattern2_cont1_shape2.png	2	2	1	2	1	4	0	0	0	0	0	0	0	0	0	0	0	0	1	16
301.05322265625	0.0999995014790329	616557	196	14	stim14_sf2_pattern2_cont2_shape1.png	1	24	0	334.495833109733	334.595832611212	0.0999995014790329	stim14_sf2_pattern2_cont2_shape1.png	2	2	2	1	1	4	0	0	0	0	0	0	0	0	0	0	0	0	1	16
301.55322265625	0.0999883580989263	617581	197	1	stim01_sf1_pattern1_cont1_shape2.png	1	25	0	334.995833842851	335.09582220095	0.0999883580989263	stim01_sf1_pattern1_cont1_shape2.png	1	1	1	2	1	1	0	0	0	0	0	0	0	0	0	0	0	0	1	16
302.05322265625	0.100019442263147	618605	198	10	stim10_sf2_pattern1_cont2_shape1.png	1	26	0	335.495823725836	335.595843168099	0.100019442263147	stim10_sf2_pattern1_cont2_shape1.png	2	1	2	1	1	3	0	0	0	0	0	0	0	0	0	0	0	0	1	16
302.55322265625	0.0999939297907986	619629	199	7	stim07_sf1_pattern2_cont2_shape2.png	1	27	0	335.995815954797	336.095809884588	0.0999939297907986	stim07_sf1_pattern2_cont2_shape2.png	1	2	2	2	1	2	0	0	0	0	0	0	0	0	0	0	0	0	1	16
303.05322265625	0.10000214070169	620653	200	15	stim15_sf2_pattern2_cont2_shape2.png	1	28	0	336.495794107908	336.59579624861	0.10000214070169	stim15_sf2_pattern2_cont2_shape2.png	2	2	2	2	1	4	0	0	0	0	0	0	0	0	0	0	0	0	1	16
303.55322265625	0.099994516287552	621677	201	12	stim12_sf2_pattern2_cont1_shape1.png	1	29	0	336.995819473756	337.095813990043	0.099994516287552	stim12_sf2_pattern2_cont1_shape1.png	2	2	1	1	1	4	0	0	0	0	0	0	0	0	0	0	0	0	1	16
304.05322265625	0.099975748493307	622701	202	4	stim04_sf1_pattern2_cont1_shape1.png	1	30	0	337.495836042199	337.595811790692	0.099975748493307	stim04_sf1_pattern2_cont1_shape1.png	1	2	1	1	1	2	0	0	0	0	0	0	0	0	0	0	0	0	1	16
304.55322265625	0.100025307197939	623725	203	8	stim08_sf2_pattern1_cont1_shape1.png	1	31	0	337.9958065709	338.095831878098	0.100025307197939	stim08_sf2_pattern1_cont1_shape1.png	2	1	1	1	1	3	0	0	0	0	0	0	0	0	0	0	0	0	1	16
305.052734375	0.100000087972148	624748	204	11	stim11_sf2_pattern1_cont2_shape2.png	1	32	0	338.49580143908	338.595801527052	0.100000087972148	stim11_sf2_pattern1_cont2_shape2.png	2	1	2	2	1	3	0	0	0	0	0	0	0	0	0	0	0	0	1	16
305.552734375	0.100000087972148	625772	205	3	stim03_sf1_pattern1_cont2_shape2.png	1	33	0	338.995817127783	339.095817215755	0.100000087972148	stim03_sf1_pattern1_cont2_shape2.png	1	1	2	2	1	1	0	0	0	0	0	0	0	0	0	0	0	0	1	16
306.052734375	0.0999648983597581	626796	206	0	stim00_sf1_pattern1_cont1_shape1.png	1	34	0	339.495826658302	339.595791556661	0.0999648983597581	stim00_sf1_pattern1_cont1_shape1.png	1	1	1	1	1	1	0	0	0	0	0	0	0	0	0	0	0	0	1	16
306.552734375	0.100007419143367	627820	207	2	stim02_sf1_pattern1_cont2_shape1.png	1	35	0	339.995786043623	340.095793462766	0.100007419143367	stim02_sf1_pattern1_cont2_shape1.png	1	1	2	1	1	1	0	0	0	0	0	0	0	0	0	0	0	0	1	16
307.052734375	0.100005952910578	628844	208	15	stim15_sf2_pattern2_cont2_shape2.png	1	36	0	340.495782084792	340.595788037703	0.100005952910578	stim15_sf2_pattern2_cont2_shape2.png	2	2	2	2	1	4	0	0	0	0	0	0	0	0	0	0	0	0	1	16
307.552734375	0.0999690038152039	629868	209	7	stim07_sf1_pattern2_cont2_shape2.png	1	37	0	340.995808330379	341.095777334194	0.0999690038152039	stim07_sf1_pattern2_cont2_shape2.png	1	2	2	2	1	2	0	0	0	0	0	0	0	0	0	0	0	0	1	16
308.052734375	0.0999986217393598	630892	210	10	stim10_sf2_pattern1_cont2_shape1.png	1	38	0	341.495769475179	341.595768096919	0.0999986217393598	stim10_sf2_pattern1_cont2_shape1.png	2	1	2	1	1	3	0	0	0	0	0	0	0	0	0	0	0	0	1	16
308.552734375	0.0999980352462444	631916	211	11	stim11_sf2_pattern1_cont2_shape2.png	1	39	0	341.995765516349	342.095763551595	0.0999980352462444	stim11_sf2_pattern1_cont2_shape2.png	2	1	2	2	1	3	0	0	0	0	0	0	0	0	0	0	0	0	1	16
309.052734375	0.100028239667154	632940	212	8	stim08_sf2_pattern1_cont1_shape1.png	1	40	0	342.495748654655	342.595776894323	0.100028239667154	stim08_sf2_pattern1_cont1_shape1.png	2	1	1	1	1	3	0	0	0	0	0	0	0	0	0	0	0	0	1	16
309.552734375	0.0999751619965537	633964	213	12	stim12_sf2_pattern2_cont1_shape1.png	1	41	0	342.995736191668	343.095711353664	0.0999751619965537	stim12_sf2_pattern2_cont1_shape1.png	2	2	1	1	1	4	0	0	0	0	0	0	0	0	0	0	0	0	1	16
310.052734375	0.100003020441363	634988	214	6	stim06_sf1_pattern2_cont2_shape1.png	1	42	0	343.495725194913	343.595728215354	0.100003020441363	stim06_sf1_pattern2_cont2_shape1.png	1	2	2	1	1	2	0	0	0	0	0	0	0	0	0	0	0	0	1	16
310.552734375	0.0999968622600136	636012	215	9	stim09_sf2_pattern1_cont1_shape2.png	1	43	0	343.995735605175	344.095732467435	0.0999968622600136	stim09_sf2_pattern1_cont1_shape2.png	2	1	1	2	1	3	0	0	0	0	0	0	0	0	0	0	0	0	1	16
311.052734375	0.0999607929043123	637036	216	1	stim01_sf1_pattern1_cont1_shape2.png	1	44	0	344.495727540889	344.595688333793	0.0999607929043123	stim01_sf1_pattern1_cont1_shape2.png	1	1	1	2	1	1	0	0	0	0	0	0	0	0	0	0	0	0	1	16
311.552734375	0.0999819066710188	638060	217	2	stim02_sf1_pattern1_cont2_shape1.png	1	45	0	344.995738537644	345.095720444315	0.0999819066710188	stim02_sf1_pattern1_cont2_shape1.png	1	1	2	1	1	1	0	0	0	0	0	0	0	0	0	0	0	0	1	16
312.052734375	0.100006832650251	639084	218	14	stim14_sf2_pattern2_cont2_shape1.png	1	46	0	345.495703787899	345.59571062055	0.100006832650251	stim14_sf2_pattern2_cont2_shape1.png	2	2	2	1	1	4	0	0	0	0	0	0	0	0	0	0	0	0	1	16
312.552734375	0.100025307197939	640108	219	5	stim05_sf1_pattern2_cont1_shape2.png	1	47	0	345.995668451658	346.095693758856	0.100025307197939	stim05_sf1_pattern2_cont1_shape2.png	1	2	1	2	1	2	0	0	0	0	0	0	0	0	0	0	0	0	1	16
313.052734375	0.0999915838183369	641132	220	4	stim04_sf1_pattern2_cont1_shape1.png	1	48	0	346.495697922961	346.595689506779	0.0999915838183369	stim04_sf1_pattern2_cont1_shape1.png	1	2	1	1	1	2	0	0	0	0	0	0	0	0	0	0	0	0	1	16
313.552734375	0.100019735509704	642156	221	13	stim13_sf2_pattern2_cont1_shape2.png	1	49	0	346.995690445168	347.095710180678	0.100019735509704	stim13_sf2_pattern2_cont1_shape2.png	2	2	1	2	1	4	0	0	0	0	0	0	0	0	0	0	0	0	1	16
314.052734375	0.100004193427594	643180	222	3	stim03_sf1_pattern1_cont2_shape2.png	1	50	0	347.495662440102	347.59566663353	0.100004193427594	stim03_sf1_pattern1_cont2_shape2.png	1	1	2	2	1	1	0	0	0	0	0	0	0	0	0	0	0	0	1	16
314.552734375	0.0999983284928021	644204	223	0	stim00_sf1_pattern1_cont1_shape1.png	1	51	0	347.995675196336	348.095673524829	0.0999983284928021	stim00_sf1_pattern1_cont1_shape1.png	1	1	1	1	1	1	0	0	0	0	0	0	0	0	0	0	0	0	1	16
315.052734375	0.100027946420596	645228	224	15	stim15_sf2_pattern2_cont2_shape2.png	1	52	0	348.495659800879	348.5956877473	0.100027946420596	stim15_sf2_pattern2_cont2_shape2.png	2	2	2	2	1	4	0	0	0	0	0	0	0	0	0	0	0	0	1	16
315.552734375	0.100006246157136	646252	225	13	stim13_sf2_pattern2_cont1_shape2.png	1	53	1	348.995638247241	349.095644493398	0.100006246157136	stim13_sf2_pattern2_cont1_shape2.png	2	2	1	2	1	4	0	0	0	0	0	0	0	0	0	0	0	0	1	16
316.052734375	0.0999901175819105	647276	226	13	stim13_sf2_pattern2_cont1_shape2.png	1	54	1	349.495648950749	349.595639068331	0.0999901175819105	stim13_sf2_pattern2_cont1_shape2.png	2	2	1	2	1	4	0	0	0	0	0	0	0	0	0	0	0	0	1	16
316.552734375	0.0999912905717792	648300	227	8	stim08_sf2_pattern1_cont1_shape1.png	1	55	2	349.995645285162	350.095636575734	0.0999912905717792	stim08_sf2_pattern1_cont1_shape1.png	2	1	1	1	1	3	0	0	0	0	0	0	0	0	0	0	0	0	1	16
317.052734375	0.100003900181036	649324	228	4	stim04_sf1_pattern2_cont1_shape1.png	1	56	2	350.49561317464	350.595617074821	0.100003900181036	stim04_sf1_pattern2_cont1_shape1.png	1	2	1	1	1	2	0	0	0	0	0	0	0	0	0	0	0	0	1	16
317.552734375	0.0999921703114524	650348	229	2	stim02_sf1_pattern1_cont2_shape1.png	1	57	0	350.995608336067	351.095600506378	0.0999921703114524	stim02_sf1_pattern1_cont2_shape1.png	1	1	2	1	1	1	0	0	0	0	0	0	0	0	0	0	0	0	1	16
318.052734375	0.100007419143367	651372	230	4	stim04_sf1_pattern2_cont1_shape1.png	1	58	0	351.495591767623	351.595599186767	0.100007419143367	stim04_sf1_pattern2_cont1_shape1.png	1	2	1	1	1	2	0	0	0	0	0	0	0	0	0	0	0	0	1	16
318.552734375	0.0999666578391043	652396	231	6	stim06_sf1_pattern2_cont2_shape1.png	1	59	0	351.995591914249	352.095558572088	0.0999666578391043	stim06_sf1_pattern2_cont2_shape1.png	1	2	2	1	1	2	0	0	0	0	0	0	0	0	0	0	0	0	1	16
319.052734375	0.0999953960272251	653420	232	14	stim14_sf2_pattern2_cont2_shape1.png	1	60	0	352.495592647363	352.59558804339	0.0999953960272251	stim14_sf2_pattern2_cont2_shape1.png	2	2	2	1	1	4	0	0	0	0	0	0	0	0	0	0	0	0	1	16
319.552734375	0.0999772147224576	654444	233	5	stim05_sf1_pattern2_cont1_shape2.png	1	61	0	352.995600418406	353.095577633128	0.0999772147224576	stim05_sf1_pattern2_cont1_shape2.png	1	2	1	2	1	2	0	0	0	0	0	0	0	0	0	0	0	0	1	16
320.052734375	0.0999965690098179	655468	234	0	stim00_sf1_pattern1_cont1_shape1.png	1	62	0	353.495565961908	353.595562530918	0.0999965690098179	stim00_sf1_pattern1_cont1_shape1.png	1	1	1	1	1	1	0	0	0	0	0	0	0	0	0	0	0	0	1	16
320.552734375	0.0999942230373563	656492	235	7	stim07_sf1_pattern2_cont2_shape2.png	1	63	0	353.995575785673	354.095570008711	0.0999942230373563	stim07_sf1_pattern2_cont2_shape2.png	1	2	2	2	1	2	0	0	0	0	0	0	0	0	0	0	0	0	1	16
321.052734375	0.100010351612582	657516	236	3	stim03_sf1_pattern1_cont2_shape2.png	1	64	0	354.495573879569	354.595584231181	0.100010351612582	stim03_sf1_pattern1_cont2_shape2.png	1	1	2	2	1	1	0	0	0	0	0	0	0	0	0	0	0	0	1	16
321.552734375	0.0999643118630047	658540	237	9	stim09_sf2_pattern1_cont1_shape2.png	1	65	0	354.995568454506	355.095532766369	0.0999643118630047	stim09_sf2_pattern1_cont1_shape2.png	2	1	1	2	1	3	0	0	0	0	0	0	0	0	0	0	0	0	1	16
322.052734375	0.10000829888304	659564	238	8	stim08_sf2_pattern1_cont1_shape1.png	1	66	0	355.495552179309	355.595560478192	0.10000829888304	stim08_sf2_pattern1_cont1_shape1.png	2	1	1	1	1	3	0	0	0	0	0	0	0	0	0	0	0	0	1	16
322.55224609375	0.100015336807701	660587	239	11	stim11_sf2_pattern1_cont2_shape2.png	1	67	0	355.995555551646	356.095570888454	0.100015336807701	stim11_sf2_pattern1_cont2_shape2.png	2	1	2	2	1	3	0	0	0	0	0	0	0	0	0	0	0	0	1	16
323.05224609375	0.100031465382926	661611	240	10	stim10_sf2_pattern1_cont2_shape1.png	1	68	0	356.49553722372	356.595568689103	0.100031465382926	stim10_sf2_pattern1_cont2_shape1.png	2	1	2	1	1	3	0	0	0	0	0	0	0	0	0	0	0	0	1	16
323.55224609375	0.100000674468902	662635	241	1	stim01_sf1_pattern1_cont1_shape2.png	1	69	0	356.995538543331	357.0955392178	0.100000674468902	stim01_sf1_pattern1_cont1_shape2.png	1	1	1	2	1	1	0	0	0	0	0	0	0	0	0	0	0	0	1	16
324.05224609375	0.0999983284928021	663659	242	13	stim13_sf2_pattern2_cont1_shape2.png	1	70	0	357.495530479046	357.595528807538	0.0999983284928021	stim13_sf2_pattern2_cont1_shape2.png	2	2	1	2	1	4	0	0	0	0	0	0	0	0	0	0	0	0	1	16
324.55224609375	0.0999798539451149	664683	243	12	stim12_sf2_pattern2_cont1_shape1.png	1	71	0	357.99552241476	358.095502268705	0.0999798539451149	stim12_sf2_pattern2_cont1_shape1.png	2	2	1	1	1	4	0	0	0	0	0	0	0	0	0	0	0	0	1	16
325.05224609375	0.10000800564012	665707	244	15	stim15_sf2_pattern2_cont2_shape2.png	1	72	0	358.495505846313	358.595513851953	0.10000800564012	stim15_sf2_pattern2_cont2_shape2.png	2	2	2	2	1	4	0	0	0	0	0	0	0	0	0	0	0	0	1	16
325.55224609375	0.0999980352462444	666731	245	12	stim12_sf2_pattern2_cont1_shape1.png	1	73	0	358.995510684887	359.095508720133	0.0999980352462444	stim12_sf2_pattern2_cont1_shape1.png	2	2	1	1	1	4	0	0	0	0	0	0	0	0	0	0	0	0	1	16
326.05224609375	0.0999681240755308	667755	246	13	stim13_sf2_pattern2_cont1_shape2.png	1	74	0	359.495504673327	359.595472797402	0.0999681240755308	stim13_sf2_pattern2_cont1_shape2.png	2	2	1	2	1	4	0	0	0	0	0	0	0	0	0	0	0	0	1	16
326.55224609375	0.100003900181036	668779	247	8	stim08_sf2_pattern1_cont1_shape1.png	1	75	0	359.99547842774	360.095482327921	0.100003900181036	stim08_sf2_pattern1_cont1_shape1.png	2	1	1	1	1	3	0	0	0	0	0	0	0	0	0	0	0	0	1	16
327.05224609375	0.0999942230373563	669803	248	0	stim00_sf1_pattern1_cont1_shape1.png	1	76	0	360.495474175663	360.5954683987	0.0999942230373563	stim00_sf1_pattern1_cont1_shape1.png	1	1	1	1	1	1	0	0	0	0	0	0	0	0	0	0	0	0	1	16
327.55224609375	0.0999751619965537	670827	249	11	stim11_sf2_pattern1_cont2_shape2.png	1	77	0	360.995481653455	361.095456815452	0.0999751619965537	stim11_sf2_pattern1_cont2_shape2.png	2	1	2	2	1	3	0	0	0	0	0	0	0	0	0	0	0	0	1	16
328.05224609375	0.100008005636482	671851	250	3	stim03_sf1_pattern1_cont2_shape2.png	1	78	1	361.495461859296	361.595469864933	0.100008005636482	stim03_sf1_pattern1_cont2_shape2.png	1	1	2	2	1	1	0	0	0	0	0	0	0	0	0	0	0	0	1	16
328.55224609375	0.0999613794010656	672875	251	3	stim03_sf1_pattern1_cont2_shape2.png	1	79	1	361.995498955013	362.095460334414	0.0999613794010656	stim03_sf1_pattern1_cont2_shape2.png	1	1	2	2	1	1	0	0	0	0	0	0	0	0	0	0	0	0	1	16
329.05224609375	0.0999830796608876	673899	252	2	stim02_sf1_pattern1_cont2_shape1.png	1	80	2	362.495447196958	362.595430276619	0.0999830796608876	stim02_sf1_pattern1_cont2_shape1.png	1	1	2	1	1	1	0	0	0	0	0	0	0	0	0	0	0	0	1	16
329.55224609375	0.100019735509704	674923	253	6	stim06_sf1_pattern2_cont2_shape1.png	1	81	2	362.995449689555	363.095469425065	0.100019735509704	stim06_sf1_pattern2_cont2_shape1.png	1	2	2	1	1	2	0	0	0	0	0	0	0	0	0	0	0	0	1	16
330.05224609375	0.0999980352462444	675947	254	5	stim05_sf1_pattern2_cont1_shape2.png	1	82	0	363.495442211763	363.595440247009	0.0999980352462444	stim05_sf1_pattern2_cont1_shape2.png	1	2	1	2	1	2	0	0	0	0	0	0	0	0	0	0	0	0	1	16
330.55224609375	0.0999775079690153	676971	255	9	stim09_sf2_pattern1_cont1_shape2.png	1	83	0	363.995430628514	364.095408136483	0.0999775079690153	stim09_sf2_pattern1_cont1_shape2.png	2	1	1	2	1	3	0	0	0	0	0	0	0	0	0	0	0	0	1	16
331.05224609375	0.100017389537243	677995	256	7	stim07_sf1_pattern2_cont2_shape2.png	1	84	0	364.495395292273	364.595412681811	0.100017389537243	stim07_sf1_pattern2_cont2_shape2.png	1	2	2	2	1	2	0	0	0	0	0	0	0	0	0	0	0	0	1	16
331.55224609375	0.0999860121301026	679019	257	14	stim14_sf2_pattern2_cont2_shape1.png	1	85	0	364.995428575785	365.095414587915	0.0999860121301026	stim14_sf2_pattern2_cont2_shape1.png	2	2	2	1	1	4	0	0	0	0	0	0	0	0	0	0	0	0	1	16
332.05224609375	0.100004193427594	680043	258	2	stim02_sf1_pattern1_cont2_shape1.png	1	86	0	365.495384148897	365.595388342324	0.100004193427594	stim02_sf1_pattern1_cont2_shape1.png	1	1	2	1	1	1	0	0	0	0	0	0	0	0	0	0	0	0	1	16
332.55224609375	0.0999810269313457	681067	259	10	stim10_sf2_pattern1_cont2_shape1.png	1	87	0	365.995381363053	366.095362389984	0.0999810269313457	stim10_sf2_pattern1_cont2_shape1.png	2	1	2	1	1	3	0	0	0	0	0	0	0	0	0	0	0	0	1	16
333.05224609375	0.0999995014790329	682091	260	3	stim03_sf1_pattern1_cont2_shape2.png	1	88	0	366.495370073051	366.59536957453	0.0999995014790329	stim03_sf1_pattern1_cont2_shape2.png	1	1	2	2	1	1	0	0	0	0	0	0	0	0	0	0	0	0	1	16
333.55224609375	0.0999470103051863	683115	261	6	stim06_sf1_pattern2_cont2_shape1.png	1	89	0	366.995398664614	367.095345674919	0.0999470103051863	stim06_sf1_pattern2_cont2_shape1.png	1	2	2	1	1	2	0	0	0	0	0	0	0	0	0	0	0	0	1	16
334.05224609375	0.0999953960272251	684139	262	4	stim04_sf1_pattern2_cont1_shape1.png	1	90	0	367.495349545774	367.595344941801	0.0999953960272251	stim04_sf1_pattern2_cont1_shape1.png	1	2	1	1	1	2	0	0	0	0	0	0	0	0	0	0	0	0	1	16
334.55224609375	0.099994516283914	685163	263	1	stim01_sf1_pattern1_cont1_shape2.png	1	91	0	367.995358489803	368.095353006087	0.099994516283914	stim01_sf1_pattern1_cont1_shape2.png	1	1	1	2	1	1	0	0	0	0	0	0	0	0	0	0	0	0	1	16
335.05224609375	0.100000967715459	686187	264	7	stim07_sf1_pattern2_cont2_shape2.png	1	92	0	368.495344560579	368.595345528294	0.100000967715459	stim07_sf1_pattern2_cont2_shape2.png	1	2	2	2	1	2	0	0	0	0	0	0	0	0	0	0	0	0	1	16
335.55224609375	0.100038503300311	687211	265	9	stim09_sf2_pattern1_cont1_shape2.png	1	93	0	368.995324766423	369.095363269724	0.100038503300311	stim09_sf2_pattern1_cont1_shape2.png	2	1	1	2	1	3	0	0	0	0	0	0	0	0	0	0	0	0	1	16
336.05224609375	0.0999909973215836	688235	266	3	stim03_sf1_pattern1_cont2_shape2.png	1	94	0	369.495350425517	369.595341422839	0.0999909973215836	stim03_sf1_pattern1_cont2_shape2.png	1	1	2	2	1	1	0	0	0	0	0	0	0	0	0	0	0	0	1	16
336.55224609375	0.0999965690134559	689259	267	4	stim04_sf1_pattern2_cont1_shape1.png	1	95	0	369.995351158632	370.095347727645	0.0999965690134559	stim04_sf1_pattern2_cont1_shape1.png	1	2	1	1	1	2	0	0	0	0	0	0	0	0	0	0	0	0	1	16
337.05224609375	0.100010351612582	690283	268	15	stim15_sf2_pattern2_cont2_shape2.png	1	96	0	370.495328138761	370.595338490373	0.100010351612582	stim15_sf2_pattern2_cont2_shape2.png	2	2	2	2	1	4	0	0	0	0	0	0	0	0	0	0	0	0	1	16
337.55224609375	0.0999942230373563	691307	269	2	stim02_sf1_pattern1_cont2_shape1.png	1	97	0	370.995329751619	371.095323974656	0.0999942230373563	stim02_sf1_pattern1_cont2_shape1.png	1	1	2	1	1	1	0	0	0	0	0	0	0	0	0	0	0	0	1	16
338.05224609375	0.099991583814699	692331	270	11	stim11_sf2_pattern1_cont2_shape2.png	1	98	0	371.495336936165	371.595328519979	0.099991583814699	stim11_sf2_pattern1_cont2_shape2.png	2	1	2	2	1	3	0	0	0	0	0	0	0	0	0	0	0	0	1	16
338.55224609375	0.0999965690098179	693355	271	8	stim08_sf2_pattern1_cont1_shape1.png	1	99	0	371.995311277071	372.095307846081	0.0999965690098179	stim08_sf2_pattern1_cont1_shape1.png	2	1	1	1	1	3	0	0	0	0	0	0	0	0	0	0	0	0	1	16
339.05224609375	0.100013284081797	694379	272	13	stim13_sf2_pattern2_cont1_shape2.png	1	100	0	372.495270369142	372.595283653223	0.100013284081797	stim13_sf2_pattern2_cont1_shape2.png	2	2	1	2	1	4	0	0	0	0	0	0	0	0	0	0	0	0	1	16
339.5517578125	0.100007125896809	695402	273	0	stim00_sf1_pattern1_cont1_shape1.png	1	101	0	372.995296321482	373.095303447379	0.100007125896809	stim00_sf1_pattern1_cont1_shape1.png	1	1	1	1	1	1	0	0	0	0	0	0	0	0	0	0	0	0	1	16
340.0517578125	0.100051112913206	696426	274	14	stim14_sf2_pattern2_cont2_shape1.png	1	102	0	373.495258932518	373.595310045432	0.100051112913206	stim14_sf2_pattern2_cont2_shape1.png	2	2	2	1	1	4	0	0	0	0	0	0	0	0	0	0	0	0	1	16
340.5517578125	0.100000674468902	697450	275	10	stim10_sf2_pattern1_cont2_shape1.png	1	103	0	373.995280779403	374.095281453872	0.100000674468902	stim10_sf2_pattern1_cont2_shape1.png	2	1	2	1	1	3	0	0	0	0	0	0	0	0	0	0	0	0	1	16
341.0517578125	0.0999959825203405	698474	276	6	stim06_sf1_pattern2_cont2_shape1.png	1	104	0	374.49527594083	374.59527192335	0.0999959825203405	stim06_sf1_pattern2_cont2_shape1.png	1	2	2	1	1	2	0	0	0	0	0	0	0	0	0	0	0	0	1	16
341.5517578125	0.0999968622563756	699498	277	1	stim01_sf1_pattern1_cont1_shape2.png	1	105	0	374.995265530571	375.095262392828	0.0999968622563756	stim01_sf1_pattern1_cont1_shape2.png	1	1	1	2	1	1	0	0	0	0	0	0	0	0	0	0	0	0	1	16
342.0517578125	0.100028532910073	700522	278	5	stim05_sf1_pattern2_cont1_shape2.png	1	106	0	375.495250135114	375.595278668025	0.100028532910073	stim05_sf1_pattern2_cont1_shape2.png	1	2	1	2	1	2	0	0	0	0	0	0	0	0	0	0	0	0	1	16
342.5517578125	0.0999874783592531	701546	279	12	stim12_sf2_pattern2_cont1_shape1.png	1	107	0	375.995261131869	376.095248610229	0.0999874783592531	stim12_sf2_pattern2_cont1_shape1.png	2	2	1	1	1	4	0	0	0	0	0	0	0	0	0	0	0	0	1	16
343.0517578125	0.100007712389925	702570	280	10	stim10_sf2_pattern1_cont2_shape1.png	1	108	0	376.495235472776	376.595243185166	0.100007712389925	stim10_sf2_pattern1_cont2_shape1.png	2	1	2	1	1	3	0	0	0	0	0	0	0	0	0	0	0	0	1	16
343.5517578125	0.0999989149859175	703594	281	13	stim13_sf2_pattern2_cont1_shape2.png	1	109	0	376.995235326151	377.095234241136	0.0999989149859175	stim13_sf2_pattern2_cont1_shape2.png	2	2	1	2	1	4	0	0	0	0	0	0	0	0	0	0	0	0	1	16
344.0517578125	0.100003900181036	704618	282	3	stim03_sf1_pattern1_cont2_shape2.png	1	110	0	377.495224036149	377.59522793633	0.100003900181036	stim03_sf1_pattern1_cont2_shape2.png	1	1	2	2	1	1	0	0	0	0	0	0	0	0	0	0	0	0	1	16
344.5517578125	0.0999953960235871	705642	283	14	stim14_sf2_pattern2_cont2_shape1.png	1	111	0	377.995221543551	378.095216939575	0.0999953960235871	stim14_sf2_pattern2_cont2_shape1.png	2	2	2	1	1	4	0	0	0	0	0	0	0	0	0	0	0	0	1	16
345.0517578125	0.0999854256333492	706666	284	1	stim01_sf1_pattern1_cont1_shape2.png	1	112	0	378.495209960303	378.595195385937	0.0999854256333492	stim01_sf1_pattern1_cont1_shape2.png	1	1	1	2	1	1	0	0	0	0	0	0	0	0	0	0	0	0	1	16
345.5517578125	0.0999956892701448	707690	285	0	stim00_sf1_pattern1_cont1_shape1.png	1	113	0	378.995207467706	379.095203156976	0.0999956892701448	stim00_sf1_pattern1_cont1_shape1.png	1	1	1	1	1	1	0	0	0	0	0	0	0	0	0	0	0	0	1	16
346.0517578125	0.100007712389925	708714	286	15	stim15_sf2_pattern2_cont2_shape2.png	1	114	0	379.495185914067	379.595193626457	0.100007712389925	stim15_sf2_pattern2_cont2_shape2.png	2	2	2	2	1	4	0	0	0	0	0	0	0	0	0	0	0	0	1	16
346.5517578125	0.100012404342124	709738	287	11	stim11_sf2_pattern1_cont2_shape2.png	1	115	0	379.995154976528	380.09516738087	0.100012404342124	stim11_sf2_pattern1_cont2_shape2.png	2	1	2	2	1	3	0	0	0	0	0	0	0	0	0	0	0	0	1	16
347.0517578125	0.100015336807701	710762	288	5	stim05_sf1_pattern2_cont1_shape2.png	1	116	0	380.495172717961	380.595188054769	0.100015336807701	stim05_sf1_pattern2_cont1_shape2.png	1	2	1	2	1	2	0	0	0	0	0	0	0	0	0	0	0	0	1	16
347.5517578125	0.0999863053730223	711786	289	4	stim04_sf1_pattern2_cont1_shape1.png	1	117	0	380.995151164323	381.095137469696	0.0999863053730223	stim04_sf1_pattern2_cont1_shape1.png	1	2	1	1	1	2	0	0	0	0	0	0	0	0	0	0	0	0	1	16
348.0517578125	0.100008885379793	712810	290	9	stim09_sf2_pattern1_cont1_shape2.png	1	118	0	381.495138994578	381.595147879958	0.100008885379793	stim09_sf2_pattern1_cont1_shape2.png	2	1	1	2	1	3	0	0	0	0	0	0	0	0	0	0	0	0	1	16
348.5517578125	0.0999977419996867	713834	291	12	stim12_sf2_pattern2_cont1_shape1.png	1	119	0	381.995138261464	382.095136003463	0.0999977419996867	stim12_sf2_pattern2_cont1_shape1.png	2	2	1	1	1	4	0	0	0	0	0	0	0	0	0	0	0	0	1	16
349.0517578125	0.100000087972148	714858	292	7	stim07_sf1_pattern2_cont2_shape2.png	1	120	0	382.495121986267	382.595122074239	0.100000087972148	stim07_sf1_pattern2_cont2_shape2.png	1	2	2	2	1	2	0	0	0	0	0	0	0	0	0	0	0	0	1	16
349.5517578125	0.0999959825167025	715882	293	6	stim06_sf1_pattern2_cont2_shape1.png	1	121	0	382.995128291073	383.09512427359	0.0999959825167025	stim06_sf1_pattern2_cont2_shape1.png	1	2	2	1	1	2	0	0	0	0	0	0	0	0	0	0	0	0	1	16
350.0517578125	0.100000381222344	716906	294	8	stim08_sf2_pattern1_cont1_shape1.png	1	122	0	383.495119347044	383.595119728267	0.100000381222344	stim08_sf2_pattern1_cont1_shape1.png	2	1	1	1	1	3	0	0	0	0	0	0	0	0	0	0	0	0	1	16
350.5517578125	0.0999968622600136	717930	295	2	stim02_sf1_pattern1_cont2_shape1.png	1	123	0	383.995111869252	384.095108731512	0.0999968622600136	stim02_sf1_pattern1_cont2_shape1.png	1	1	2	1	1	1	0	0	0	0	0	0	0	0	0	0	0	0	1	16
351.0517578125	0.100012990835239	718954	296	13	stim13_sf2_pattern2_cont1_shape2.png	1	124	0	384.495110842887	384.595123833722	0.100012990835239	stim13_sf2_pattern2_cont1_shape2.png	2	2	1	2	1	4	0	0	0	0	0	0	0	0	0	0	0	0	1	16
351.5517578125	0.100004193427594	719978	297	7	stim07_sf1_pattern2_cont2_shape2.png	1	125	0	384.99511568146	385.095119874888	0.100004193427594	stim07_sf1_pattern2_cont2_shape2.png	1	2	2	2	1	2	0	0	0	0	0	0	0	0	0	0	0	0	1	16
352.0517578125	0.10002413420807	721002	298	12	stim12_sf2_pattern2_cont1_shape1.png	1	126	0	385.495079465483	385.595103599691	0.10002413420807	stim12_sf2_pattern2_cont1_shape1.png	2	2	1	1	1	4	0	0	0	0	0	0	0	0	0	0	0	0	1	16
352.5517578125	0.0999965690098179	722026	299	4	stim04_sf1_pattern2_cont1_shape1.png	1	127	0	385.995100725875	386.095097294885	0.0999965690098179	stim04_sf1_pattern2_cont1_shape1.png	1	2	1	1	1	2	0	0	0	0	0	0	0	0	0	0	0	0	1	16
353.0517578125	0.10003351810883	723050	300	15	stim15_sf2_pattern2_cont2_shape2.png	1	128	0	386.495057471973	386.595090990082	0.10003351810883	stim15_sf2_pattern2_cont2_shape2.png	2	2	2	2	1	4	0	0	0	0	0	0	0	0	0	0	0	0	1	16
353.5517578125	0.100006832650251	724074	301	0	stim00_sf1_pattern1_cont1_shape1.png	1	129	0	386.99509662042	387.09510345307	0.100006832650251	stim00_sf1_pattern1_cont1_shape1.png	1	1	1	1	1	1	0	0	0	0	0	0	0	0	0	0	0	0	1	16
354.0517578125	0.100004779924348	725098	302	2	stim02_sf1_pattern1_cont2_shape1.png	1	130	0	387.495068908596	387.595073688521	0.100004779924348	stim02_sf1_pattern1_cont2_shape1.png	1	1	2	1	1	1	0	0	0	0	0	0	0	0	0	0	0	0	1	16
354.5517578125	0.099997448753129	726122	303	11	stim11_sf2_pattern1_cont2_shape2.png	1	131	0	387.995069348468	388.095066797221	0.099997448753129	stim11_sf2_pattern1_cont2_shape2.png	2	1	2	2	1	3	0	0	0	0	0	0	0	0	0	0	0	0	1	16
355.0517578125	0.100015043561143	727146	304	5	stim05_sf1_pattern2_cont1_shape2.png	1	132	0	388.49504662184	388.595061665401	0.100015043561143	stim05_sf1_pattern2_cont1_shape2.png	1	2	1	2	1	2	0	0	0	0	0	0	0	0	0	0	0	0	1	16
355.5517578125	0.100059323824098	728170	305	6	stim06_sf1_pattern2_cont2_shape1.png	1	133	0	388.995055565869	389.095114889693	0.100059323824098	stim06_sf1_pattern2_cont2_shape1.png	1	2	2	1	1	2	0	0	0	0	0	0	0	0	0	0	0	0	1	16
356.0517578125	0.0999795606985572	729194	306	1	stim01_sf1_pattern1_cont1_shape2.png	1	134	0	389.495063336908	389.595042897607	0.0999795606985572	stim01_sf1_pattern1_cont1_shape2.png	1	1	1	2	1	1	0	0	0	0	0	0	0	0	0	0	0	0	1	16
356.5517578125	0.100000674468902	730218	307	9	stim09_sf2_pattern1_cont1_shape2.png	1	135	0	389.995038557554	390.095039232023	0.100000674468902	stim09_sf2_pattern1_cont1_shape2.png	2	1	1	2	1	3	0	0	0	0	0	0	0	0	0	0	0	0	1	16
357.05126953125	0.100008885376155	731241	308	14	stim14_sf2_pattern2_cont2_shape1.png	1	136	0	390.495020522878	390.595029408254	0.100008885376155	stim14_sf2_pattern2_cont2_shape1.png	2	2	2	1	1	4	0	0	0	0	0	0	0	0	0	0	0	0	1	16
357.55126953125	0.0999739890103228	732265	309	3	stim03_sf1_pattern1_cont2_shape2.png	1	137	0	390.995026534434	391.095000523444	0.0999739890103228	stim03_sf1_pattern1_cont2_shape2.png	1	1	2	2	1	1	0	0	0	0	0	0	0	0	0	0	0	0	1	16
358.05126953125	0.100020908495935	733289	310	8	stim08_sf2_pattern1_cont1_shape1.png	1	138	0	391.494975949365	391.594996857861	0.100020908495935	stim08_sf2_pattern1_cont1_shape1.png	2	1	1	1	1	3	0	0	0	0	0	0	0	0	0	0	0	0	1	16
358.55126953125	0.100019442263147	734313	311	10	stim10_sf2_pattern1_cont2_shape1.png	1	139	0	391.994986652873	392.095006095136	0.100019442263147	stim10_sf2_pattern1_cont2_shape1.png	2	1	2	1	1	3	0	0	0	0	0	0	0	0	0	0	0	0	1	16
359.05126953125	0.10000829888304	735337	312	6	stim06_sf1_pattern2_cont2_shape1.png	1	140	0	392.494987972485	392.594996271368	0.10000829888304	stim06_sf1_pattern2_cont2_shape1.png	1	2	2	1	1	2	0	0	0	0	0	0	0	0	0	0	0	0	1	16
359.55126953125	0.100033224858635	736361	313	1	stim01_sf1_pattern1_cont1_shape2.png	1	141	0	392.994981667678	393.095014892537	0.100033224858635	stim01_sf1_pattern1_cont1_shape2.png	1	1	1	2	1	1	0	0	0	0	0	0	0	0	0	0	0	0	1	16
360.05126953125	0.0999918770648947	737385	314	11	stim11_sf2_pattern1_cont2_shape2.png	1	142	0	393.494994130666	393.594986007731	0.0999918770648947	stim11_sf2_pattern1_cont2_shape2.png	2	1	2	2	1	3	0	0	0	0	0	0	0	0	0	0	0	0	1	16
360.55126953125	0.100000967715459	738409	315	2	stim02_sf1_pattern1_cont2_shape1.png	1	143	0	393.994977855469	394.094978823185	0.100000967715459	stim02_sf1_pattern1_cont2_shape1.png	1	1	2	1	1	1	0	0	0	0	0	0	0	0	0	0	0	0	1	16
361.05126953125	0.0999810269313457	739433	316	14	stim14_sf2_pattern2_cont2_shape1.png	1	144	0	394.494958354557	394.594939381488	0.0999810269313457	stim14_sf2_pattern2_cont2_shape1.png	2	2	2	1	1	4	0	0	0	0	0	0	0	0	0	0	0	0	1	16
361.55126953125	0.0999930500511255	740457	317	12	stim12_sf2_pattern2_cont1_shape1.png	1	145	0	394.994963779624	395.094956829675	0.0999930500511255	stim12_sf2_pattern2_cont1_shape1.png	2	2	1	1	1	4	0	0	0	0	0	0	0	0	0	0	0	0	1	16
362.05126953125	0.100003020441363	741481	318	5	stim05_sf1_pattern2_cont1_shape2.png	1	146	0	395.494944571958	395.594947592399	0.100003020441363	stim05_sf1_pattern2_cont1_shape2.png	1	2	1	2	1	2	0	0	0	0	0	0	0	0	0	0	0	0	1	16
362.55126953125	0.0999956892701448	742505	319	13	stim13_sf2_pattern2_cont1_shape2.png	1	147	0	395.99493210897	396.09492779824	0.0999956892701448	stim13_sf2_pattern2_cont1_shape2.png	2	2	1	2	1	4	0	0	0	0	0	0	0	0	0	0	0	0	1	16
363.05126953125	0.0999962757668982	743529	320	3	stim03_sf1_pattern1_cont2_shape2.png	1	148	0	396.494918179746	396.594914455512	0.0999962757668982	stim03_sf1_pattern1_cont2_shape2.png	1	1	2	2	1	1	0	0	0	0	0	0	0	0	0	0	0	0	1	16
363.55126953125	0.0999745755034382	744553	321	10	stim10_sf2_pattern1_cont2_shape1.png	1	149	0	396.994933281956	397.094907857459	0.0999745755034382	stim10_sf2_pattern1_cont2_shape1.png	2	1	2	1	1	3	0	0	0	0	0	0	0	0	0	0	0	0	1	16
364.05126953125	0.0999722295273386	745577	322	0	stim00_sf1_pattern1_cont1_shape1.png	1	150	0	397.494921405461	397.594893634989	0.0999722295273386	stim00_sf1_pattern1_cont1_shape1.png	1	1	1	1	1	1	0	0	0	0	0	0	0	0	0	0	0	0	1	16
364.55126953125	0.0999795606985572	746601	323	8	stim08_sf2_pattern1_cont1_shape1.png	1	151	0	397.994914220915	398.094893781614	0.0999795606985572	stim08_sf2_pattern1_cont1_shape1.png	2	1	1	1	1	3	0	0	0	0	0	0	0	0	0	0	0	0	1	16
365.05126953125	0.100011231352255	747625	324	7	stim07_sf1_pattern2_cont2_shape2.png	1	152	0	398.494893547017	398.594904778369	0.100011231352255	stim07_sf1_pattern2_cont2_shape2.png	1	2	2	2	1	2	0	0	0	0	0	0	0	0	0	0	0	0	1	16
365.55126953125	0.0999942230373563	748649	325	4	stim04_sf1_pattern2_cont1_shape1.png	1	153	0	398.994877858313	399.09487208135	0.0999942230373563	stim04_sf1_pattern2_cont1_shape1.png	1	2	1	1	1	2	0	0	0	0	0	0	0	0	0	0	0	0	1	16
366.05126953125	0.100023547718592	749673	326	9	stim09_sf2_pattern1_cont1_shape2.png	1	154	0	399.494871553507	399.594895101225	0.100023547718592	stim09_sf2_pattern1_cont1_shape2.png	2	1	1	2	1	3	0	0	0	0	0	0	0	0	0	0	0	0	1	16
366.55126953125	0.099977801219211	750697	327	15	stim15_sf2_pattern2_cont2_shape2.png	1	155	0	399.994889001689	400.094866802909	0.099977801219211	stim15_sf2_pattern2_cont2_shape2.png	2	2	2	2	1	4	0	0	0	0	0	0	0	0	0	0	0	0	1	16
367.05126953125	0.100007125900447	751721	328	4	stim04_sf1_pattern2_cont1_shape1.png	1	156	0	400.494868327791	400.594875453691	0.100007125900447	stim04_sf1_pattern2_cont1_shape1.png	1	2	1	1	1	2	0	0	0	0	0	0	0	0	0	0	0	0	1	16
367.55126953125	0.100006539403694	752745	329	15	stim15_sf2_pattern2_cont2_shape2.png	1	157	0	400.994883430001	401.094889969405	0.100006539403694	stim15_sf2_pattern2_cont2_shape2.png	2	2	2	2	1	4	0	0	0	0	0	0	0	0	0	0	0	0	1	16
368.05126953125	0.100006832650251	753769	330	7	stim07_sf1_pattern2_cont2_shape2.png	1	158	0	401.494856891168	401.594863723818	0.100006832650251	stim07_sf1_pattern2_cont2_shape2.png	1	2	2	2	1	2	0	0	0	0	0	0	0	0	0	0	0	0	1	16
368.55126953125	0.100058444088063	754793	331	13	stim13_sf2_pattern2_cont1_shape2.png	1	159	0	401.994801907393	402.094860351481	0.100058444088063	stim13_sf2_pattern2_cont1_shape2.png	2	2	1	2	1	4	0	0	0	0	0	0	0	0	0	0	0	0	1	16
369.05126953125	0.0999965690134559	755817	332	14	stim14_sf2_pattern2_cont2_shape1.png	1	160	0	402.494849853243	402.594846422257	0.0999965690134559	stim14_sf2_pattern2_cont2_shape1.png	2	2	2	1	1	4	0	0	0	0	0	0	0	0	0	0	0	0	1	16
369.55126953125	0.0999983284928021	756841	333	11	stim11_sf2_pattern1_cont2_shape2.png	1	161	0	402.994840615971	403.094838944464	0.0999983284928021	stim11_sf2_pattern1_cont2_shape2.png	2	1	2	2	1	3	0	0	0	0	0	0	0	0	0	0	0	0	1	16
370.05126953125	0.100009471872909	757865	334	10	stim10_sf2_pattern1_cont2_shape1.png	1	162	0	403.494821408305	403.594830880178	0.100009471872909	stim10_sf2_pattern1_cont2_shape1.png	2	1	2	1	1	3	0	0	0	0	0	0	0	0	0	0	0	0	1	16
370.55126953125	0.100019735509704	758889	335	5	stim05_sf1_pattern2_cont1_shape2.png	1	163	0	403.994810998043	404.094830733553	0.100019735509704	stim05_sf1_pattern2_cont1_shape2.png	1	2	1	2	1	2	0	0	0	0	0	0	0	0	0	0	0	0	1	16
371.05126953125	0.0999795606985572	759913	336	8	stim08_sf2_pattern1_cont1_shape1.png	1	164	0	404.49481847584	404.594798036538	0.0999795606985572	stim08_sf2_pattern1_cont1_shape1.png	2	1	1	1	1	3	0	0	0	0	0	0	0	0	0	0	0	0	1	16
371.55126953125	0.100001554208575	760937	337	1	stim01_sf1_pattern1_cont1_shape2.png	1	165	0	404.994810704797	405.094812259005	0.100001554208575	stim01_sf1_pattern1_cont1_shape2.png	1	1	1	2	1	1	0	0	0	0	0	0	0	0	0	0	0	0	1	16
372.05126953125	0.099994516283914	761961	338	9	stim09_sf2_pattern1_cont1_shape2.png	1	166	0	405.494807332459	405.594801848743	0.099994516283914	stim09_sf2_pattern1_cont1_shape2.png	2	1	1	2	1	3	0	0	0	0	0	0	0	0	0	0	0	0	1	16
372.55126953125	0.0999948095304717	762985	339	6	stim06_sf1_pattern2_cont2_shape1.png	1	167	0	405.994772289469	406.094767098999	0.0999948095304717	stim06_sf1_pattern2_cont2_shape1.png	1	2	2	1	1	2	0	0	0	0	0	0	0	0	0	0	0	0	1	16
373.05126953125	0.0999951027770294	764009	340	0	stim00_sf1_pattern1_cont1_shape1.png	1	168	0	406.494791203888	406.594786306665	0.0999951027770294	stim00_sf1_pattern1_cont1_shape1.png	1	1	1	1	1	1	0	0	0	0	0	0	0	0	0	0	0	0	1	16
373.55126953125	0.0999989149895555	765033	341	3	stim03_sf1_pattern1_cont2_shape2.png	1	169	0	406.994778154403	407.094777069393	0.0999989149895555	stim03_sf1_pattern1_cont2_shape2.png	1	1	2	2	1	1	0	0	0	0	0	0	0	0	0	0	0	0	1	16
374.05126953125	0.100007419143367	766057	342	12	stim12_sf2_pattern2_cont1_shape1.png	1	170	0	407.494764811676	407.594772230819	0.100007419143367	stim12_sf2_pattern2_cont1_shape1.png	2	2	1	1	1	4	0	0	0	0	0	0	0	0	0	0	0	0	1	16
374.55078125	0.0999939297907986	767080	343	2	stim02_sf1_pattern1_cont2_shape1.png	1	171	0	407.994767890767	408.094761820557	0.0999939297907986	stim02_sf1_pattern1_cont2_shape1.png	1	1	2	1	1	1	0	0	0	0	0	0	0	0	0	0	0	0	1	16
401.966796875	0.0999824931677722	823228	344	4	stim04_sf1_pattern2_cont1_shape1.png	2	0	0	435.410991534845	435.510974028013	0.0999824931677722	stim04_sf1_pattern2_cont1_shape1.png	1	2	1	1	1	2	0	0	0	0	0	0	0	0	0	0	0	0	1	16
402.466796875	0.100016803040489	824252	345	10	stim10_sf2_pattern1_cont2_shape1.png	2	1	0	435.910984643546	436.011001446586	0.100016803040489	stim10_sf2_pattern1_cont2_shape1.png	2	1	2	1	1	3	0	0	0	0	0	0	0	0	0	0	0	0	1	16
402.966796875	0.100029412653384	825276	346	13	stim13_sf2_pattern2_cont1_shape2.png	2	2	0	436.410961330424	436.510990743078	0.100029412653384	stim13_sf2_pattern2_cont1_shape2.png	2	2	1	2	1	4	0	0	0	0	0	0	0	0	0	0	0	0	1	16
403.466796875	0.100026480184169	826300	347	0	stim00_sf1_pattern1_cont1_shape1.png	2	3	0	436.91093772406	437.010964204244	0.100026480184169	stim00_sf1_pattern1_cont1_shape1.png	1	1	1	1	1	1	0	0	0	0	0	0	0	0	0	0	0	0	1	16
403.966796875	0.100015630050621	827324	348	7	stim07_sf1_pattern2_cont2_shape2.png	2	4	0	437.410939630165	437.510955260215	0.100015630050621	stim07_sf1_pattern2_cont2_shape2.png	1	2	2	2	1	2	0	0	0	0	0	0	0	0	0	0	0	0	1	16
404.466796875	0.0999933432976832	828348	349	12	stim12_sf2_pattern2_cont1_shape1.png	2	5	0	437.910961770296	438.010955113594	0.0999933432976832	stim12_sf2_pattern2_cont1_shape1.png	2	2	1	1	1	4	0	0	0	0	0	0	0	0	0	0	0	0	1	16
404.966796875	0.099997448753129	829372	350	2	stim02_sf1_pattern1_cont2_shape1.png	2	6	0	438.410936404449	438.510933853202	0.099997448753129	stim02_sf1_pattern1_cont2_shape1.png	1	1	2	1	1	1	0	0	0	0	0	0	0	0	0	0	0	0	1	16
405.466796875	0.0999490630310902	830396	351	11	stim11_sf2_pattern1_cont2_shape2.png	2	7	0	438.910965875752	439.010914938783	0.0999490630310902	stim11_sf2_pattern1_cont2_shape2.png	2	1	2	2	1	3	0	0	0	0	0	0	0	0	0	0	0	0	1	16
405.966796875	0.100008005636482	831420	352	6	stim06_sf1_pattern2_cont2_shape1.png	2	8	0	439.410923794836	439.510931800472	0.100008005636482	stim06_sf1_pattern2_cont2_shape1.png	1	2	2	1	1	2	0	0	0	0	0	0	0	0	0	0	0	0	1	16
406.466796875	0.0999883581025642	832444	353	14	stim14_sf2_pattern2_cont2_shape1.png	2	9	0	439.910935671331	440.010924029433	0.0999883581025642	stim14_sf2_pattern2_cont2_shape1.png	2	2	2	1	1	4	0	0	0	0	0	0	0	0	0	0	0	0	1	16
406.966796875	0.0999792674519995	833468	354	1	stim01_sf1_pattern1_cont1_shape2.png	2	10	0	440.410932885487	440.510912152939	0.0999792674519995	stim01_sf1_pattern1_cont1_shape2.png	1	1	1	2	1	1	0	0	0	0	0	0	0	0	0	0	0	0	1	16
407.466796875	0.10000214070169	834492	355	5	stim05_sf1_pattern2_cont1_shape2.png	2	11	0	440.910934498344	441.010936639046	0.10000214070169	stim05_sf1_pattern2_cont1_shape2.png	1	2	1	2	1	2	0	0	0	0	0	0	0	0	0	0	0	0	1	16
407.966796875	0.100027359927481	835516	356	8	stim08_sf2_pattern1_cont1_shape1.png	2	12	0	441.410915583925	441.510942943853	0.100027359927481	stim08_sf2_pattern1_cont1_shape1.png	2	1	1	1	1	3	0	0	0	0	0	0	0	0	0	0	0	0	1	16
408.466796875	0.100007125900447	836540	357	3	stim03_sf1_pattern1_cont2_shape2.png	2	13	0	441.910900188468	442.010907314369	0.100007125900447	stim03_sf1_pattern1_cont2_shape2.png	1	1	2	2	1	1	0	0	0	0	0	0	0	0	0	0	0	0	1	16
408.966796875	0.0999992082324752	837564	358	9	stim09_sf2_pattern1_cont1_shape2.png	2	14	0	442.410893590419	442.510892798651	0.0999992082324752	stim09_sf2_pattern1_cont1_shape2.png	2	1	1	2	1	3	0	0	0	0	0	0	0	0	0	0	0	0	1	16
409.466796875	0.100020028756262	838588	359	15	stim15_sf2_pattern2_cont2_shape2.png	2	15	1	442.910902827691	443.010922856447	0.100020028756262	stim15_sf2_pattern2_cont2_shape2.png	2	2	2	2	1	4	0	0	0	0	0	0	0	0	0	0	0	0	1	16
409.966796875	0.100004486674152	839612	360	15	stim15_sf2_pattern2_cont2_shape2.png	2	16	1	443.41087980782	443.510884294494	0.100004486674152	stim15_sf2_pattern2_cont2_shape2.png	2	2	2	2	1	4	0	0	0	0	0	0	0	0	0	0	0	0	1	16
410.466796875	0.0999968622600136	840636	361	0	stim00_sf1_pattern1_cont1_shape1.png	2	17	2	443.910887578859	444.010884441119	0.0999968622600136	stim00_sf1_pattern1_cont1_shape1.png	1	1	1	1	1	1	0	0	0	0	0	0	0	0	0	0	0	0	1	16
410.966796875	0.100003900181036	841660	362	12	stim12_sf2_pattern2_cont1_shape1.png	2	18	2	444.410864265737	444.510868165919	0.100003900181036	stim12_sf2_pattern2_cont1_shape1.png	2	2	1	1	1	4	0	0	0	0	0	0	0	0	0	0	0	0	1	16
411.466796875	0.100020615249377	842684	363	15	stim15_sf2_pattern2_cont2_shape2.png	2	19	0	444.910850336517	445.010870951766	0.100020615249377	stim15_sf2_pattern2_cont2_shape2.png	2	2	2	2	1	4	0	0	0	0	0	0	0	0	0	0	0	0	1	16
411.966796875	0.100005366417463	843708	364	7	stim07_sf1_pattern2_cont2_shape2.png	2	20	0	445.410849310152	445.51085467657	0.100005366417463	stim07_sf1_pattern2_cont2_shape2.png	1	2	2	2	1	2	0	0	0	0	0	0	0	0	0	0	0	0	1	16
412.466796875	0.0999983284928021	844732	365	15	stim15_sf2_pattern2_cont2_shape2.png	2	21	0	445.910840072876	446.010838401369	0.0999983284928021	stim15_sf2_pattern2_cont2_shape2.png	2	2	2	2	1	4	0	0	0	0	0	0	0	0	0	0	0	0	1	16
412.966796875	0.100002433948248	845756	366	5	stim05_sf1_pattern2_cont1_shape2.png	2	22	0	446.41083288833	446.510835322279	0.100002433948248	stim05_sf1_pattern2_cont1_shape2.png	1	2	1	2	1	2	0	0	0	0	0	0	0	0	0	0	0	0	1	16
413.466796875	0.0999760417398647	846780	367	11	stim11_sf2_pattern1_cont2_shape2.png	2	23	0	446.91086265288	447.010838694619	0.0999760417398647	stim11_sf2_pattern1_cont2_shape2.png	2	1	2	2	1	3	0	0	0	0	0	0	0	0	0	0	0	0	1	16
413.966796875	0.100003313687921	847804	368	0	stim00_sf1_pattern1_cont1_shape1.png	2	24	0	447.410817346252	447.51082065994	0.100003313687921	stim00_sf1_pattern1_cont1_shape1.png	1	1	1	1	1	1	0	0	0	0	0	0	0	0	0	0	0	0	1	16
414.466796875	0.0999772147260956	848828	369	4	stim04_sf1_pattern2_cont1_shape1.png	2	25	0	447.910847697294	448.01082491202	0.0999772147260956	stim04_sf1_pattern2_cont1_shape1.png	1	2	1	1	1	2	0	0	0	0	0	0	0	0	0	0	0	0	1	16
414.96630859375	0.100003020441363	849851	370	3	stim03_sf1_pattern1_cont2_shape2.png	2	26	0	448.410802390667	448.510805411108	0.100003020441363	stim03_sf1_pattern1_cont2_shape2.png	1	1	2	2	1	1	0	0	0	0	0	0	0	0	0	0	0	0	1	16
415.46630859375	0.100001847455133	850875	371	8	stim08_sf2_pattern1_cont1_shape1.png	2	27	0	448.910811334692	449.010813182147	0.100001847455133	stim08_sf2_pattern1_cont1_shape1.png	2	1	1	1	1	3	0	0	0	0	0	0	0	0	0	0	0	0	1	16
415.96630859375	0.100036743824603	851899	372	10	stim10_sf2_pattern1_cont2_shape1.png	2	28	0	449.410754884684	449.510791628509	0.100036743824603	stim10_sf2_pattern1_cont2_shape1.png	2	1	2	1	1	3	0	0	0	0	0	0	0	0	0	0	0	0	1	16
416.46630859375	0.0999508225140744	852923	373	9	stim09_sf2_pattern1_cont1_shape2.png	2	29	0	449.91081778612	450.010768608634	0.0999508225140744	stim09_sf2_pattern1_cont1_shape2.png	2	1	1	2	1	3	0	0	0	0	0	0	0	0	0	0	0	0	1	16
416.96630859375	0.100006539403694	853947	374	12	stim12_sf2_pattern2_cont1_shape1.png	2	30	0	450.410781570143	450.510788109546	0.100006539403694	stim12_sf2_pattern2_cont1_shape1.png	2	2	1	1	1	4	0	0	0	0	0	0	0	0	0	0	0	0	1	16
417.46630859375	0.0999816134280991	854971	375	6	stim06_sf1_pattern2_cont2_shape1.png	2	31	0	450.910784355987	451.010765969415	0.0999816134280991	stim06_sf1_pattern2_cont2_shape1.png	1	2	2	1	1	2	0	0	0	0	0	0	0	0	0	0	0	0	1	16
417.96630859375	0.0999780944657687	855995	376	13	stim13_sf2_pattern2_cont1_shape2.png	2	32	0	451.410771013259	451.510749107725	0.0999780944657687	stim13_sf2_pattern2_cont1_shape2.png	2	2	1	2	1	4	0	0	0	0	0	0	0	0	0	0	0	0	1	16
418.46630859375	0.100006539403694	857019	377	2	stim02_sf1_pattern1_cont2_shape1.png	2	33	0	451.910721307926	452.01072784733	0.100006539403694	stim02_sf1_pattern1_cont2_shape1.png	1	1	2	1	1	1	0	0	0	0	0	0	0	0	0	0	0	0	1	16
418.96630859375	0.0999959825203405	858043	378	1	stim01_sf1_pattern1_cont1_shape2.png	2	34	0	452.41070327325	452.51069925577	0.0999959825203405	stim01_sf1_pattern1_cont1_shape2.png	1	1	1	2	1	1	0	0	0	0	0	0	0	0	0	0	0	0	1	16
419.46630859375	0.100017976030358	859067	379	14	stim14_sf2_pattern2_cont2_shape1.png	2	35	0	452.910706645587	453.010724621618	0.100017976030358	stim14_sf2_pattern2_cont2_shape1.png	2	2	2	1	1	4	0	0	0	0	0	0	0	0	0	0	0	0	1	16
419.96630859375	0.100023254468397	860091	380	0	stim00_sf1_pattern1_cont1_shape1.png	2	36	0	453.410688317665	453.510711572133	0.100023254468397	stim00_sf1_pattern1_cont1_shape1.png	1	1	1	1	1	1	0	0	0	0	0	0	0	0	0	0	0	0	1	16
420.46630859375	0.100021494989051	861115	381	1	stim01_sf1_pattern1_cont1_shape2.png	2	37	0	453.910691396755	454.010712891744	0.100021494989051	stim01_sf1_pattern1_cont1_shape2.png	1	1	1	2	1	1	0	0	0	0	0	0	0	0	0	0	0	0	1	16
420.96630859375	0.100019442263147	862139	382	7	stim07_sf1_pattern2_cont2_shape2.png	2	38	0	454.410686264935	454.510705707198	0.100019442263147	stim07_sf1_pattern2_cont2_shape2.png	1	2	2	2	1	2	0	0	0	0	0	0	0	0	0	0	0	0	1	16
421.46630859375	0.099977801219211	863163	383	11	stim11_sf2_pattern1_cont2_shape2.png	2	39	0	454.910723947149	455.010701748368	0.099977801219211	stim11_sf2_pattern1_cont2_shape2.png	2	1	2	2	1	3	0	0	0	0	0	0	0	0	0	0	0	0	1	16
421.96630859375	0.0999904108321061	864187	384	3	stim03_sf1_pattern1_cont2_shape2.png	2	40	0	455.410690370391	455.510680781223	0.0999904108321061	stim03_sf1_pattern1_cont2_shape2.png	1	1	2	2	1	1	0	0	0	0	0	0	0	0	0	0	0	0	1	16
422.46630859375	0.100002727194806	865211	385	5	stim05_sf1_pattern2_cont1_shape2.png	2	41	0	455.910686118314	456.010688845508	0.100002727194806	stim05_sf1_pattern2_cont1_shape2.png	1	2	1	2	1	2	0	0	0	0	0	0	0	0	0	0	0	0	1	16
422.96630859375	0.10000214070169	866235	386	13	stim13_sf2_pattern2_cont1_shape2.png	2	42	0	456.41068215948	456.510684300181	0.10000214070169	stim13_sf2_pattern2_cont1_shape2.png	2	2	1	2	1	4	0	0	0	0	0	0	0	0	0	0	0	0	1	16
423.46630859375	0.0999604996541166	867259	387	6	stim06_sf1_pattern2_cont2_shape1.png	2	43	0	456.910712510526	457.01067301018	0.0999604996541166	stim06_sf1_pattern2_cont2_shape1.png	1	2	2	1	1	2	0	0	0	0	0	0	0	0	0	0	0	0	1	16
423.96630859375	0.100020615249377	868283	388	2	stim02_sf1_pattern1_cont2_shape1.png	2	44	0	457.410646969867	457.510667585117	0.100020615249377	stim02_sf1_pattern1_cont2_shape1.png	1	1	2	1	1	1	0	0	0	0	0	0	0	0	0	0	0	0	1	16
424.46630859375	0.0999962757668982	869307	389	14	stim14_sf2_pattern2_cont2_shape1.png	2	45	0	457.910675561427	458.010671837194	0.0999962757668982	stim14_sf2_pattern2_cont2_shape1.png	2	2	2	1	1	4	0	0	0	0	0	0	0	0	0	0	0	0	1	16
424.96630859375	0.099794815218047	870331	390	8	stim08_sf2_pattern1_cont1_shape1.png	2	46	0	458.41087980782	458.510674623038	0.099794815218047	stim08_sf2_pattern1_cont1_shape1.png	2	1	1	1	1	3	0	0	0	0	0	0	0	0	0	0	0	0	1	16
425.46630859375	0.0999977419996867	871355	391	9	stim09_sf2_pattern1_cont1_shape2.png	2	47	0	458.910659139608	459.010656881608	0.0999977419996867	stim09_sf2_pattern1_cont1_shape2.png	2	1	1	2	1	3	0	0	0	0	0	0	0	0	0	0	0	0	1	16
425.96630859375	0.100006539403694	872379	392	10	stim10_sf2_pattern1_cont2_shape1.png	2	48	0	459.41063758597	459.510644125374	0.100006539403694	stim10_sf2_pattern1_cont2_shape1.png	2	1	2	1	1	3	0	0	0	0	0	0	0	0	0	0	0	0	1	16
426.46630859375	0.0999795606985572	873403	393	15	stim15_sf2_pattern2_cont2_shape2.png	2	49	0	459.910667350519	460.010646911218	0.0999795606985572	stim15_sf2_pattern2_cont2_shape2.png	2	2	2	2	1	4	0	0	0	0	0	0	0	0	0	0	0	0	1	16
426.96630859375	0.100003606934479	874427	394	12	stim12_sf2_pattern2_cont1_shape1.png	2	50	0	460.410623216878	460.510626823812	0.100003606934479	stim12_sf2_pattern2_cont1_shape1.png	2	2	1	1	1	4	0	0	0	0	0	0	0	0	0	0	0	0	1	16
427.46630859375	0.0999839594005607	875451	395	4	stim04_sf1_pattern2_cont1_shape1.png	2	51	0	460.91064242454	461.010626383941	0.0999839594005607	stim04_sf1_pattern2_cont1_shape1.png	1	2	1	1	1	2	0	0	0	0	0	0	0	0	0	0	0	0	1	16
427.96630859375	0.0999654848528735	876475	396	2	stim02_sf1_pattern1_cont2_shape1.png	2	52	0	461.41062849532	461.510593980172	0.0999654848528735	stim02_sf1_pattern1_cont2_shape1.png	1	1	2	1	1	1	0	0	0	0	0	0	0	0	0	0	0	0	1	16
428.46630859375	0.0999819066746568	877499	397	9	stim09_sf2_pattern1_cont1_shape2.png	2	53	0	461.910633040643	462.010614947318	0.0999819066746568	stim09_sf2_pattern1_cont1_shape2.png	2	1	1	2	1	3	0	0	0	0	0	0	0	0	0	0	0	0	1	16
428.96630859375	0.100025307197939	878523	398	12	stim12_sf2_pattern2_cont1_shape1.png	2	54	0	462.4105707257	462.510596032898	0.100025307197939	stim12_sf2_pattern2_cont1_shape1.png	2	2	1	1	1	4	0	0	0	0	0	0	0	0	0	0	0	0	1	16
429.46630859375	0.099956100955751	879547	399	14	stim14_sf2_pattern2_cont2_shape1.png	2	55	0	462.910621017527	463.010577118483	0.099956100955751	stim14_sf2_pattern2_cont2_shape1.png	2	2	2	1	1	4	0	0	0	0	0	0	0	0	0	0	0	0	1	16
429.96630859375	0.0999971555065713	880571	400	1	stim01_sf1_pattern1_cont1_shape2.png	2	56	0	463.410576590635	463.510573746142	0.0999971555065713	stim01_sf1_pattern1_cont1_shape2.png	1	1	1	2	1	1	0	0	0	0	0	0	0	0	0	0	0	0	1	16
430.46630859375	0.0999997947255906	881595	401	6	stim06_sf1_pattern2_cont2_shape1.png	2	57	0	463.910584068431	464.010583863157	0.0999997947255906	stim06_sf1_pattern2_cont2_shape1.png	1	2	2	1	1	2	0	0	0	0	0	0	0	0	0	0	0	0	1	16
430.96630859375	0.0999402656307211	882619	402	15	stim15_sf2_pattern2_cont2_shape2.png	2	58	0	464.410562221543	464.510502487174	0.0999402656307211	stim15_sf2_pattern2_cont2_shape2.png	2	2	2	2	1	4	0	0	0	0	0	0	0	0	0	0	0	0	1	16
431.46630859375	0.100003313687921	883643	403	8	stim08_sf2_pattern1_cont1_shape1.png	2	59	0	464.910568819596	465.010572133284	0.100003313687921	stim08_sf2_pattern1_cont1_shape1.png	2	1	1	1	1	3	0	0	0	0	0	0	0	0	0	0	0	0	1	16
431.96630859375	0.100003900181036	884667	404	7	stim07_sf1_pattern2_cont2_shape2.png	2	60	0	465.410546972711	465.510550872892	0.100003900181036	stim07_sf1_pattern2_cont2_shape2.png	1	2	2	2	1	2	0	0	0	0	0	0	0	0	0	0	0	0	1	16
432.4658203125	0.0999775079690153	885690	405	3	stim03_sf1_pattern1_cont2_shape2.png	2	61	0	465.910553277517	466.010530785486	0.0999775079690153	stim03_sf1_pattern1_cont2_shape2.png	1	1	2	2	1	1	0	0	0	0	0	0	0	0	0	0	0	0	1	16
432.9658203125	0.100004779924348	886714	406	0	stim00_sf1_pattern1_cont1_shape1.png	2	62	0	466.410526152187	466.510530932112	0.100004779924348	stim00_sf1_pattern1_cont1_shape1.png	1	1	1	1	1	1	0	0	0	0	0	0	0	0	0	0	0	0	1	16
433.4658203125	0.0999813201815414	887738	407	5	stim05_sf1_pattern2_cont1_shape2.png	2	63	0	466.910537148942	467.010518469124	0.0999813201815414	stim05_sf1_pattern2_cont1_shape2.png	1	2	1	2	1	2	0	0	0	0	0	0	0	0	0	0	0	0	1	16
433.9658203125	0.100011524602451	888762	408	11	stim11_sf2_pattern1_cont2_shape2.png	2	64	0	467.410508264133	467.510519788735	0.100011524602451	stim11_sf2_pattern1_cont2_shape2.png	2	1	2	2	1	3	0	0	0	0	0	0	0	0	0	0	0	0	1	16
434.4658203125	0.0999722295309766	889786	409	10	stim10_sf2_pattern1_cont2_shape1.png	2	65	0	467.910504891795	468.010477121326	0.0999722295309766	stim10_sf2_pattern1_cont2_shape1.png	2	1	2	1	1	3	0	0	0	0	0	0	0	0	0	0	0	0	1	16
434.9658203125	0.100017096287047	890810	410	13	stim13_sf2_pattern2_cont1_shape2.png	2	66	0	468.410481578678	468.510498674965	0.100017096287047	stim13_sf2_pattern2_cont1_shape2.png	2	2	1	2	1	4	0	0	0	0	0	0	0	0	0	0	0	0	1	16
435.4658203125	0.0999745755034382	891834	411	4	stim04_sf1_pattern2_cont1_shape1.png	2	67	0	468.910488469977	469.010463045481	0.0999745755034382	stim04_sf1_pattern2_cont1_shape1.png	1	2	1	1	1	2	0	0	0	0	0	0	0	0	0	0	0	0	1	16
435.9658203125	0.0999921703114524	892858	412	3	stim03_sf1_pattern1_cont2_shape2.png	2	68	0	469.410465743349	469.510457913661	0.0999921703114524	stim03_sf1_pattern1_cont2_shape2.png	1	1	2	2	1	1	0	0	0	0	0	0	0	0	0	0	0	0	1	16
436.4658203125	0.0999827864106919	893882	413	10	stim10_sf2_pattern1_cont2_shape1.png	2	69	0	469.910474394132	470.010457180542	0.0999827864106919	stim10_sf2_pattern1_cont2_shape1.png	2	1	2	1	1	3	0	0	0	0	0	0	0	0	0	0	0	0	1	16
436.9658203125	0.100010938105697	894906	414	6	stim06_sf1_pattern2_cont2_shape1.png	2	70	0	470.410455186466	470.510466124571	0.100010938105697	stim06_sf1_pattern2_cont2_shape1.png	1	2	2	1	1	2	0	0	0	0	0	0	0	0	0	0	0	0	1	16
437.4658203125	0.099989531088795	895930	415	11	stim11_sf2_pattern1_cont2_shape2.png	2	71	0	470.910475273871	471.01046480496	0.099989531088795	stim11_sf2_pattern1_cont2_shape2.png	2	1	2	2	1	3	0	0	0	0	0	0	0	0	0	0	0	0	1	16
437.9658203125	0.0999956892701448	896954	416	13	stim13_sf2_pattern2_cont1_shape2.png	2	72	0	471.410449321531	471.510445010801	0.0999956892701448	stim13_sf2_pattern2_cont1_shape2.png	2	2	1	2	1	4	0	0	0	0	0	0	0	0	0	0	0	0	1	16
438.4658203125	0.0999924635580101	897978	417	9	stim09_sf2_pattern1_cont1_shape2.png	2	73	0	471.910467356207	472.010459819765	0.0999924635580101	stim09_sf2_pattern1_cont1_shape2.png	2	1	1	2	1	3	0	0	0	0	0	0	0	0	0	0	0	0	1	16
438.9658203125	0.100051406163402	899002	418	2	stim02_sf1_pattern1_cont2_shape1.png	2	74	0	472.410414425161	472.510465831325	0.100051406163402	stim02_sf1_pattern1_cont2_shape1.png	1	1	2	1	1	1	0	0	0	0	0	0	0	0	0	0	0	0	1	16
439.4658203125	0.0999989149859175	900026	419	1	stim01_sf1_pattern1_cont1_shape2.png	2	75	0	472.910449468152	473.010448383138	0.0999989149859175	stim01_sf1_pattern1_cont1_shape2.png	1	1	1	2	1	1	0	0	0	0	0	0	0	0	0	0	0	0	1	16
439.9658203125	0.100015630054259	901050	420	0	stim00_sf1_pattern1_cont1_shape1.png	2	76	0	473.410425275291	473.510440905346	0.100015630054259	stim00_sf1_pattern1_cont1_shape1.png	1	1	1	1	1	1	0	0	0	0	0	0	0	0	0	0	0	0	1	16
440.4658203125	0.099997448749491	902074	421	7	stim07_sf1_pattern2_cont2_shape2.png	2	77	0	473.910446535687	474.010443984436	0.099997448749491	stim07_sf1_pattern2_cont2_shape2.png	1	2	2	2	1	2	0	0	0	0	0	0	0	0	0	0	0	0	1	16
440.9658203125	0.100015336807701	903098	422	12	stim12_sf2_pattern2_cont1_shape1.png	2	78	0	474.410410319706	474.510425656514	0.100015336807701	stim12_sf2_pattern2_cont1_shape1.png	2	2	1	1	1	4	0	0	0	0	0	0	0	0	0	0	0	0	1	16
441.4658203125	0.0999951027770294	904122	423	15	stim15_sf2_pattern2_cont2_shape2.png	2	79	0	474.910420143475	475.010415246252	0.0999951027770294	stim15_sf2_pattern2_cont2_shape2.png	2	2	2	2	1	4	0	0	0	0	0	0	0	0	0	0	0	0	1	16
441.9658203125	0.0999965690098179	905146	424	5	stim05_sf1_pattern2_cont1_shape2.png	2	80	0	475.410412665682	475.510409234692	0.0999965690098179	stim05_sf1_pattern2_cont1_shape2.png	1	2	1	2	1	2	0	0	0	0	0	0	0	0	0	0	0	0	1	16
442.4658203125	0.0999953960235871	906170	425	8	stim08_sf2_pattern1_cont1_shape1.png	2	81	0	475.910406067629	476.010401463653	0.0999953960235871	stim08_sf2_pattern1_cont1_shape1.png	2	1	1	1	1	3	0	0	0	0	0	0	0	0	0	0	0	0	1	16
442.9658203125	0.100009765119466	907194	426	14	stim14_sf2_pattern2_cont2_shape1.png	2	82	0	476.410379822039	476.510389587158	0.100009765119466	stim14_sf2_pattern2_cont2_shape1.png	2	2	2	1	1	4	0	0	0	0	0	0	0	0	0	0	0	0	1	16
443.4658203125	0.0999848391438718	908218	427	4	stim04_sf1_pattern2_cont1_shape1.png	2	83	0	476.910400202691	477.010385041835	0.0999848391438718	stim04_sf1_pattern2_cont1_shape1.png	1	2	1	1	1	2	0	0	0	0	0	0	0	0	0	0	0	0	1	16
443.9658203125	0.0999760417362268	909242	428	0	stim00_sf1_pattern1_cont1_shape1.png	2	84	0	477.41036633269	477.510342374426	0.0999760417362268	stim00_sf1_pattern1_cont1_shape1.png	1	1	1	1	1	1	0	0	0	0	0	0	0	0	0	0	0	0	1	16
444.4658203125	0.100019735509704	910266	429	1	stim01_sf1_pattern1_cont1_shape2.png	2	85	0	477.910374690222	478.010394425732	0.100019735509704	stim01_sf1_pattern1_cont1_shape2.png	1	1	1	2	1	1	0	0	0	0	0	0	0	0	0	0	0	0	1	16
444.9658203125	0.100004486674152	911290	430	14	stim14_sf2_pattern2_cont2_shape1.png	2	86	0	478.410345218919	478.510349705593	0.100004486674152	stim14_sf2_pattern2_cont2_shape1.png	2	2	2	1	1	4	0	0	0	0	0	0	0	0	0	0	0	0	1	16
445.4658203125	0.0999951027770294	912314	431	4	stim04_sf1_pattern2_cont1_shape1.png	2	87	0	478.91036032113	479.010355423907	0.0999951027770294	stim04_sf1_pattern2_cont1_shape1.png	1	2	1	1	1	2	0	0	0	0	0	0	0	0	0	0	0	0	1	16
445.9658203125	0.0999558077091933	913338	432	8	stim08_sf2_pattern1_cont1_shape1.png	2	88	0	479.410372197624	479.510328005334	0.0999558077091933	stim08_sf2_pattern1_cont1_shape1.png	2	1	1	1	1	3	0	0	0	0	0	0	0	0	0	0	0	0	1	16
446.4658203125	0.100030292393058	914362	433	10	stim10_sf2_pattern1_cont2_shape1.png	2	89	0	479.910328943723	480.010359236116	0.100030292393058	stim10_sf2_pattern1_cont2_shape1.png	2	1	2	1	1	3	0	0	0	0	0	0	0	0	0	0	0	0	1	16
446.9658203125	0.100004779924348	915386	434	5	stim05_sf1_pattern2_cont1_shape2.png	2	90	0	480.410315014498	480.510319794423	0.100004779924348	stim05_sf1_pattern2_cont1_shape2.png	1	2	1	2	1	2	0	0	0	0	0	0	0	0	0	0	0	0	1	16
447.4658203125	0.100004193427594	916410	435	7	stim07_sf1_pattern2_cont2_shape2.png	2	91	0	480.910316040863	481.010320234291	0.100004193427594	stim07_sf1_pattern2_cont2_shape2.png	1	2	2	2	1	2	0	0	0	0	0	0	0	0	0	0	0	0	1	16
447.9658203125	0.0999953960235871	917434	436	13	stim13_sf2_pattern2_cont1_shape2.png	2	92	0	481.410307096838	481.510302492861	0.0999953960235871	stim13_sf2_pattern2_cont1_shape2.png	2	2	1	2	1	4	0	0	0	0	0	0	0	0	0	0	0	0	1	16
448.4658203125	0.0999426116031827	918458	437	6	stim06_sf1_pattern2_cont2_shape1.png	2	93	0	481.910328357229	482.010270968833	0.0999426116031827	stim06_sf1_pattern2_cont2_shape1.png	1	2	2	1	1	2	0	0	0	0	0	0	0	0	0	0	0	0	1	16
448.9658203125	0.100053165642748	919482	438	15	stim15_sf2_pattern2_cont2_shape2.png	2	94	0	482.410248447479	482.510301613122	0.100053165642748	stim15_sf2_pattern2_cont2_shape2.png	2	2	2	2	1	4	0	0	0	0	0	0	0	0	0	0	0	0	1	16
449.4658203125	0.0999769214795379	920506	439	12	stim12_sf2_pattern2_cont1_shape1.png	2	95	0	482.910252992802	483.010229914282	0.0999769214795379	stim12_sf2_pattern2_cont1_shape1.png	2	2	1	1	1	4	0	0	0	0	0	0	0	0	0	0	0	0	1	16
449.96533203125	0.100061669800198	921529	440	9	stim09_sf2_pattern1_cont1_shape2.png	2	96	0	483.410202114486	483.510263784287	0.100061669800198	stim09_sf2_pattern1_cont1_shape2.png	2	1	1	2	1	3	0	0	0	0	0	0	0	0	0	0	0	0	1	16
450.46533203125	0.100009471869271	922553	441	3	stim03_sf1_pattern1_cont2_shape2.png	2	97	0	483.910240969686	484.010250441555	0.100009471869271	stim03_sf1_pattern1_cont2_shape2.png	1	1	2	2	1	1	0	0	0	0	0	0	0	0	0	0	0	0	1	16
450.96533203125	0.100025307197939	923577	442	2	stim02_sf1_pattern1_cont2_shape1.png	2	98	0	484.410218829551	484.510244136749	0.100025307197939	stim02_sf1_pattern1_cont2_shape1.png	1	1	2	1	1	1	0	0	0	0	0	0	0	0	0	0	0	0	1	16
451.46533203125	0.10002032200282	924601	443	11	stim11_sf2_pattern1_cont2_shape2.png	2	99	0	484.910226014097	485.0102463361	0.10002032200282	stim11_sf2_pattern1_cont2_shape2.png	2	1	2	2	1	3	0	0	0	0	0	0	0	0	0	0	0	0	1	16
451.96533203125	0.100018269273278	925625	444	13	stim13_sf2_pattern2_cont1_shape2.png	2	100	0	485.410225280983	485.510243550256	0.100018269273278	stim13_sf2_pattern2_cont1_shape2.png	2	2	1	2	1	4	0	0	0	0	0	0	0	0	0	0	0	0	1	16
452.46533203125	0.100017389537243	926649	445	9	stim09_sf2_pattern1_cont1_shape2.png	2	101	0	485.910225134357	486.010242523895	0.100017389537243	stim09_sf2_pattern1_cont1_shape2.png	2	1	1	2	1	3	0	0	0	0	0	0	0	0	0	0	0	0	1	16
452.96533203125	0.0999942230409943	927673	446	14	stim14_sf2_pattern2_cont2_shape1.png	2	102	0	486.410222935006	486.510217158047	0.0999942230409943	stim14_sf2_pattern2_cont2_shape1.png	2	2	2	1	1	4	0	0	0	0	0	0	0	0	0	0	0	0	1	16
453.46533203125	0.0999959825167025	928697	447	1	stim01_sf1_pattern1_cont1_shape2.png	2	103	0	486.910222788385	487.010218770902	0.0999959825167025	stim01_sf1_pattern1_cont1_shape2.png	1	1	1	2	1	1	0	0	0	0	0	0	0	0	0	0	0	0	1	16
453.96533203125	0.0999731092706497	929721	448	11	stim11_sf2_pattern1_cont2_shape2.png	2	104	0	487.410232905397	487.510206014667	0.0999731092706497	stim11_sf2_pattern1_cont2_shape2.png	2	1	2	2	1	3	0	0	0	0	0	0	0	0	0	0	0	0	1	16
454.46533203125	0.0999971555065713	930745	449	5	stim05_sf1_pattern2_cont1_shape2.png	2	105	0	487.910235984491	488.010233139998	0.0999971555065713	stim05_sf1_pattern2_cont1_shape2.png	1	2	1	2	1	2	0	0	0	0	0	0	0	0	0	0	0	0	1	16
