onset	duration	onsetsample	eventnumber	stimnumber	stimname	blocknumber	trialnumber	istarget	time_stimon	time_stimoff	stimdur	stimfilename	spatial_freq	pattern	contrast	shape	is_fast_stream	category	ppt_1_response	ppt_1_keypressed	ppt_1_rt	ppt_1_correct	ppt_2_response	ppt_2_keypressed	ppt_2_rt	ppt_2_correct	button1	button2	button3	button4	task_part_number	subjectnr
59.0166015625	0.0999995308084181	120866	0	4	stim04_sf1_pattern2_cont1_shape1.png	0	0	0	238.764066195796	238.864065726604	0.0999995308084181	stim04_sf1_pattern2_cont1_shape1.png	1	2	1	1	1	1	0	0	0	0	0	0	0	0	0	0	0	0	1	12
59.52490234375	0.100000997030293	121907	1	7	stim07_sf1_pattern2_cont2_shape2.png	0	1	0	239.272385243245	239.372386240275	0.100000997030293	stim07_sf1_pattern2_cont2_shape2.png	1	2	2	2	1	4	0	0	0	0	0	0	0	0	0	0	0	0	1	12
60.02490234375	0.0996596606710227	122931	2	12	stim12_sf2_pattern2_cont1_shape1.png	0	2	0	239.790774886324	239.890434546995	0.0996596606710227	stim12_sf2_pattern2_cont1_shape1.png	2	2	1	1	1	1	0	0	0	0	0	0	0	0	0	0	0	0	1	12
60.54150390625	0.09966347284535	123989	3	9	stim09_sf2_pattern1_cont1_shape2.png	0	3	0	240.289390186756	240.389053659601	0.09966347284535	stim09_sf2_pattern1_cont1_shape2.png	2	1	1	2	1	3	0	0	0	0	0	0	0	0	0	0	0	0	1	12
61.04150390625	0.100024456574829	125013	4	1	stim01_sf1_pattern1_cont1_shape2.png	0	4	0	240.789026270584	240.889050727159	0.100024456574829	stim01_sf1_pattern1_cont1_shape2.png	1	1	1	2	1	3	0	0	0	0	0	0	0	0	0	0	0	0	1	12
61.54150390625	0.10004117149947	126037	5	8	stim08_sf2_pattern1_cont1_shape1.png	0	5	0	241.288956478442	241.388997649941	0.10004117149947	stim08_sf2_pattern1_cont1_shape1.png	2	1	1	1	1	1	0	0	0	0	0	0	0	0	0	0	0	0	1	12
62.04150390625	0.100006568673052	127061	6	10	stim10_sf2_pattern1_cont2_shape1.png	0	6	0	241.788975246076	241.888981814749	0.100006568673052	stim10_sf2_pattern1_cont2_shape1.png	2	1	2	1	1	2	0	0	0	0	0	0	0	0	0	0	0	0	1	12
62.54150390625	0.0999139034738619	128085	7	2	stim02_sf1_pattern1_cont2_shape1.png	0	7	0	242.289049730129	242.388963633603	0.0999139034738619	stim02_sf1_pattern1_cont2_shape1.png	1	1	2	1	1	2	0	0	0	0	0	0	0	0	0	0	0	0	1	12
63.041015625	0.0999801766847668	129108	8	15	stim15_sf2_pattern2_cont2_shape2.png	0	8	0	242.788961463595	242.88894164028	0.0999801766847668	stim15_sf2_pattern2_cont2_shape2.png	2	2	2	2	1	4	0	0	0	0	0	0	0	0	0	0	0	0	1	12
63.541015625	0.0999769509980979	130132	9	5	stim05_sf1_pattern2_cont1_shape2.png	0	9	0	243.288939763517	243.388916714515	0.0999769509980979	stim05_sf1_pattern2_cont1_shape2.png	1	2	1	2	1	3	0	0	0	0	0	0	0	0	0	0	0	0	1	12
64.041015625	0.0999628752724675	131156	10	6	stim06_sf1_pattern2_cont2_shape1.png	0	10	0	243.788936831073	243.888899706346	0.0999628752724675	stim06_sf1_pattern2_cont2_shape1.png	1	2	2	1	1	2	0	0	0	0	0	0	0	0	0	0	0	0	1	12
64.541015625	0.0999927861903416	132180	11	14	stim14_sf2_pattern2_cont2_shape1.png	0	11	0	244.288921875615	244.388914661806	0.0999927861903416	stim14_sf2_pattern2_cont2_shape1.png	2	2	2	1	1	2	0	0	0	0	0	0	0	0	0	0	0	0	1	12
65.041015625	0.099999530810237	133204	12	11	stim11_sf2_pattern1_cont2_shape2.png	0	12	0	244.788908972865	244.888908503675	0.099999530810237	stim11_sf2_pattern1_cont2_shape2.png	2	1	2	2	1	4	0	0	0	0	0	0	0	0	0	0	0	0	1	12
65.541015625	0.100007448405449	134228	13	3	stim03_sf1_pattern1_cont2_shape2.png	0	13	0	245.28889225794	245.388899706346	0.100007448405449	stim03_sf1_pattern1_cont2_shape2.png	1	1	2	2	1	4	0	0	0	0	0	0	0	0	0	0	0	0	1	12
66.041015625	0.0999951321446133	135252	14	13	stim13_sf2_pattern2_cont1_shape2.png	0	14	0	245.788907799888	245.888902932033	0.0999951321446133	stim13_sf2_pattern2_cont1_shape2.png	2	2	1	2	1	3	0	0	0	0	0	0	0	0	0	0	0	0	1	12
66.541015625	0.0999658077162167	136276	15	0	stim00_sf1_pattern1_cont1_shape1.png	0	15	0	246.288922168858	246.388887976575	0.0999658077162167	stim00_sf1_pattern1_cont1_shape1.png	1	1	1	1	1	1	0	0	0	0	0	0	0	0	0	0	0	0	1	12
67.041015625	0.100005688938836	137300	16	9	stim09_sf2_pattern1_cont1_shape2.png	0	16	0	246.788864986222	246.88887067516	0.100005688938836	stim09_sf2_pattern1_cont1_shape2.png	2	1	1	2	1	3	0	0	0	0	0	0	0	0	0	0	0	0	1	12
67.541015625	0.10001272680347	138324	17	6	stim06_sf1_pattern2_cont2_shape1.png	0	17	0	247.288866745686	247.38887947249	0.10001272680347	stim06_sf1_pattern2_cont2_shape1.png	1	2	2	1	1	2	0	0	0	0	0	0	0	0	0	0	0	0	1	12
68.041015625	0.0999836956161744	139348	18	11	stim11_sf2_pattern1_cont2_shape2.png	0	18	0	247.78886352	247.888847215616	0.0999836956161744	stim11_sf2_pattern1_cont2_shape2.png	2	1	2	2	1	4	0	0	0	0	0	0	0	0	0	0	0	0	1	12
68.541015625	0.100019178176808	140372	19	1	stim01_sf1_pattern1_cont1_shape2.png	0	19	0	248.288826864462	248.388846042639	0.100019178176808	stim01_sf1_pattern1_cont1_shape2.png	1	1	1	2	1	3	0	0	0	0	0	0	0	0	0	0	0	0	1	12
69.041015625	0.100054660735623	141396	20	7	stim07_sf1_pattern2_cont2_shape2.png	0	20	0	248.788828917173	248.888883577909	0.100054660735623	stim07_sf1_pattern2_cont2_shape2.png	1	2	2	2	1	4	0	0	0	0	0	0	0	0	0	0	0	0	1	12
69.541015625	0.0999878010370594	142420	21	15	stim15_sf2_pattern2_cont2_shape2.png	0	21	0	249.288824518508	249.388812319545	0.0999878010370594	stim15_sf2_pattern2_cont2_shape2.png	2	2	2	2	1	4	0	0	0	0	0	0	0	0	0	0	0	0	1	12
70.041015625	0.0999986510760209	143444	22	8	stim08_sf2_pattern1_cont1_shape1.png	0	22	0	249.788803404919	249.888802055995	0.0999986510760209	stim08_sf2_pattern1_cont1_shape1.png	2	1	1	1	1	1	0	0	0	0	0	0	0	0	0	0	0	0	1	12
70.541015625	0.100024749817749	144468	23	4	stim04_sf1_pattern2_cont1_shape1.png	0	23	0	250.288764989917	250.388789739734	0.100024749817749	stim04_sf1_pattern2_cont1_shape1.png	1	2	1	1	1	1	0	0	0	0	0	0	0	0	0	0	0	0	1	12
71.041015625	0.100033253904257	145492	24	3	stim03_sf1_pattern1_cont2_shape2.png	0	24	0	250.788745929036	250.88877918294	0.100033253904257	stim03_sf1_pattern1_cont2_shape2.png	1	1	2	2	1	4	0	0	0	0	0	0	0	0	0	0	0	0	1	12
71.541015625	0.100033840391916	146516	25	0	stim00_sf1_pattern1_cont1_shape1.png	0	25	0	251.288729507356	251.388763347748	0.100033840391916	stim00_sf1_pattern1_cont1_shape1.png	1	1	1	1	1	1	0	0	0	0	0	0	0	0	0	0	0	0	1	12
72.041015625	0.0999971848541463	147540	26	14	stim14_sf2_pattern2_cont2_shape1.png	0	26	0	251.788753553388	251.888750738242	0.0999971848541463	stim14_sf2_pattern2_cont2_shape1.png	2	2	2	1	1	2	0	0	0	0	0	0	0	0	0	0	0	0	1	12
72.541015625	0.0999787104647112	148564	27	13	stim13_sf2_pattern2_cont1_shape2.png	0	27	0	252.288733319532	252.388712029997	0.0999787104647112	stim13_sf2_pattern2_cont1_shape2.png	2	2	1	2	1	3	0	0	0	0	0	0	0	0	0	0	0	0	1	12
73.041015625	0.0999441076364747	149588	28	5	stim05_sf1_pattern2_cont1_shape2.png	0	28	0	252.788731266823	252.888675374459	0.0999441076364747	stim05_sf1_pattern2_cont1_shape2.png	1	2	1	2	1	3	0	0	0	0	0	0	0	0	0	0	0	0	1	12
73.541015625	0.100008328137847	150612	29	12	stim12_sf2_pattern2_cont1_shape1.png	0	29	0	253.288710153232	253.38871848137	0.100008328137847	stim12_sf2_pattern2_cont1_shape1.png	2	2	1	1	1	1	0	0	0	0	0	0	0	0	0	0	0	0	1	12
74.041015625	0.0990315313865722	151636	30	10	stim10_sf2_pattern1_cont2_shape1.png	0	30	0	253.789675513457	253.888707044844	0.0990315313865722	stim10_sf2_pattern1_cont2_shape1.png	2	1	2	1	1	2	0	0	0	0	0	0	0	0	0	0	0	0	1	12
74.541015625	0.0999886807712755	152660	31	2	stim02_sf1_pattern1_cont2_shape1.png	0	31	0	254.288681122047	254.388669802818	0.0999886807712755	stim02_sf1_pattern1_cont2_shape1.png	1	1	2	1	1	2	0	0	0	0	0	0	0	0	0	0	0	0	1	12
75.041015625	0.10000187676269	153684	32	5	stim05_sf1_pattern2_cont1_shape2.png	0	32	1	254.7886861072	254.888687983963	0.10000187676269	stim05_sf1_pattern2_cont1_shape2.png	1	2	1	2	1	3	0	0	0	0	0	0	0	0	0	0	0	0	1	12
75.541015625	0.100016245733059	154708	33	5	stim05_sf1_pattern2_cont1_shape2.png	0	33	1	255.288655023305	255.388671269038	0.100016245733059	stim05_sf1_pattern2_cont1_shape2.png	1	2	1	2	1	3	0	0	0	0	0	0	0	0	0	0	0	0	1	12
76.041015625	0.0999514387440286	155732	34	10	stim10_sf2_pattern1_cont2_shape1.png	0	34	2	255.788633323227	255.888584761971	0.0999514387440286	stim10_sf2_pattern1_cont2_shape1.png	2	1	2	1	1	2	0	0	0	0	0	0	0	0	0	0	0	0	1	12
76.541015625	0.100025922796704	156756	35	9	stim09_sf2_pattern1_cont1_shape2.png	0	35	2	256.288603705552	256.388629628349	0.100025922796704	stim09_sf2_pattern1_cont1_shape2.png	2	1	1	2	1	3	0	0	0	0	0	0	0	0	0	0	0	0	1	12
77.041015625	0.0999924929456029	157780	36	11	stim11_sf2_pattern1_cont2_shape2.png	0	36	0	256.788618661012	256.888611153958	0.0999924929456029	stim11_sf2_pattern1_cont2_shape2.png	2	1	2	2	1	4	0	0	0	0	0	0	0	0	0	0	0	0	1	12
77.541015625	0.100007741650188	158804	37	1	stim01_sf1_pattern1_cont1_shape2.png	0	37	0	257.288601652843	257.388609394493	0.100007741650188	stim01_sf1_pattern1_cont1_shape2.png	1	1	1	2	1	3	0	0	0	0	0	0	0	0	0	0	0	0	1	12
78.041015625	0.0999746050438262	159828	38	10	stim10_sf2_pattern1_cont2_shape1.png	0	38	0	257.788608690706	257.888583295749	0.0999746050438262	stim10_sf2_pattern1_cont2_shape1.png	2	1	2	1	1	2	0	0	0	0	0	0	0	0	0	0	0	0	1	12
78.541015625	0.0999878010370594	160852	39	5	stim05_sf1_pattern2_cont1_shape2.png	0	39	0	258.288581418987	258.388569220024	0.0999878010370594	stim05_sf1_pattern2_cont1_shape2.png	1	2	1	2	1	3	0	0	0	0	0	0	0	0	0	0	0	0	1	12
79.041015625	0.100012140313993	161876	40	9	stim09_sf2_pattern1_cont1_shape2.png	0	40	0	258.788551214824	258.888563355138	0.100012140313993	stim09_sf2_pattern1_cont1_shape2.png	2	1	1	2	1	3	0	0	0	0	0	0	0	0	0	0	0	0	1	12
79.541015625	0.100005395695916	162900	41	6	stim06_sf1_pattern2_cont2_shape1.png	0	41	0	259.288552974289	259.388558369985	0.100005395695916	stim06_sf1_pattern2_cont2_shape1.png	1	2	2	1	1	2	0	0	0	0	0	0	0	0	0	0	0	0	1	12
80.04052734375	0.0999731388219516	163923	42	12	stim12_sf2_pattern2_cont1_shape1.png	0	42	0	259.78854065803	259.888513796852	0.0999731388219516	stim12_sf2_pattern2_cont1_shape1.png	2	2	1	1	1	1	0	0	0	0	0	0	0	0	0	0	0	0	1	12
80.54052734375	0.099989267258934	164947	43	14	stim14_sf2_pattern2_cont2_shape1.png	0	43	0	260.288526875547	260.388516142806	0.099989267258934	stim14_sf2_pattern2_cont2_shape1.png	2	2	2	1	1	2	0	0	0	0	0	0	0	0	0	0	0	0	1	12
81.04052734375	0.100011847069254	165971	44	2	stim02_sf1_pattern1_cont2_shape1.png	0	44	0	260.788523649861	260.88853549693	0.100011847069254	stim02_sf1_pattern1_cont2_shape1.png	1	1	2	1	1	2	0	0	0	0	0	0	0	0	0	0	0	0	1	12
81.54052734375	0.0999822293961188	166995	45	4	stim04_sf1_pattern2_cont1_shape1.png	0	45	0	261.288526289058	261.388508518454	0.0999822293961188	stim04_sf1_pattern2_cont1_shape1.png	1	2	1	1	1	1	0	0	0	0	0	0	0	0	0	0	0	0	1	12
82.04052734375	0.100020351153944	168019	46	3	stim03_sf1_pattern1_cont2_shape2.png	0	46	0	261.788489633522	261.888509984676	0.100020351153944	stim03_sf1_pattern1_cont2_shape2.png	1	1	2	2	1	4	0	0	0	0	0	0	0	0	0	0	0	0	1	12
82.54052734375	0.0999787104628922	169043	47	8	stim08_sf2_pattern1_cont1_shape1.png	0	47	0	262.288501949783	262.388480660245	0.0999787104628922	stim08_sf2_pattern1_cont1_shape1.png	2	1	1	1	1	1	0	0	0	0	0	0	0	0	0	0	0	0	1	12
83.04052734375	0.100030907948167	170067	48	15	stim15_sf2_pattern2_cont2_shape2.png	0	48	0	262.788464121268	262.888495029216	0.100030907948167	stim15_sf2_pattern2_cont2_shape2.png	2	2	2	2	1	4	0	0	0	0	0	0	0	0	0	0	0	0	1	12
83.54052734375	0.100066097264062	171091	49	7	stim07_sf1_pattern2_cont2_shape2.png	0	49	0	263.288406352141	263.388472449406	0.100066097264062	stim07_sf1_pattern2_cont2_shape2.png	1	2	2	2	1	4	0	0	0	0	0	0	0	0	0	0	0	0	1	12
84.04052734375	0.0999942524122162	172115	50	0	stim00_sf1_pattern1_cont1_shape1.png	0	50	0	263.788464121268	263.88845837368	0.0999942524122162	stim00_sf1_pattern1_cont1_shape1.png	1	1	1	1	1	1	0	0	0	0	0	0	0	0	0	0	0	0	1	12
84.54052734375	0.100003342984564	173139	51	13	stim13_sf2_pattern2_cont1_shape2.png	0	51	0	264.288453857718	264.388457200703	0.100003342984564	stim13_sf2_pattern2_cont1_shape2.png	2	2	1	2	1	3	0	0	0	0	0	0	0	0	0	0	0	0	1	12
85.04052734375	0.0999775374875753	174163	52	10	stim10_sf2_pattern1_cont2_shape1.png	0	52	0	264.788441248213	264.8884187857	0.0999775374875753	stim10_sf2_pattern1_cont2_shape1.png	2	1	2	1	1	2	0	0	0	0	0	0	0	0	0	0	0	0	1	12
85.54052734375	0.100021230886341	175187	53	7	stim07_sf1_pattern2_cont2_shape2.png	0	53	0	265.288421014357	265.388442245243	0.100021230886341	stim07_sf1_pattern2_cont2_shape2.png	1	2	2	2	1	4	0	0	0	0	0	0	0	0	0	0	0	0	1	12
86.04052734375	0.10000187676269	176211	54	2	stim02_sf1_pattern1_cont2_shape1.png	0	54	0	265.788417495425	265.888419372188	0.10000187676269	stim02_sf1_pattern1_cont2_shape1.png	1	1	2	1	1	2	0	0	0	0	0	0	0	0	0	0	0	0	1	12
86.54052734375	0.0999965983664879	177235	55	4	stim04_sf1_pattern2_cont1_shape1.png	0	55	0	266.28840488592	266.388401484286	0.0999965983664879	stim04_sf1_pattern2_cont1_shape1.png	1	2	1	1	1	1	0	0	0	0	0	0	0	0	0	0	0	0	1	12
87.04052734375	0.0999989443207596	178259	56	11	stim11_sf2_pattern1_cont2_shape2.png	0	56	0	266.788391689926	266.888390634247	0.0999989443207596	stim11_sf2_pattern1_cont2_shape2.png	2	1	2	2	1	4	0	0	0	0	0	0	0	0	0	0	0	0	1	12
87.54052734375	0.099965514469659	179283	57	6	stim06_sf1_pattern2_cont2_shape1.png	0	57	0	267.288373802025	267.388339316494	0.099965514469659	stim06_sf1_pattern2_cont2_shape1.png	1	2	2	1	1	2	0	0	0	0	0	0	0	0	0	0	0	0	1	12
88.04052734375	0.0999312048879801	180307	58	12	stim12_sf2_pattern2_cont1_shape1.png	0	58	0	267.788367937139	267.888299142027	0.0999312048879801	stim12_sf2_pattern2_cont1_shape1.png	2	2	1	1	1	1	0	0	0	0	0	0	0	0	0	0	0	0	1	12
88.54052734375	0.100021230886341	181331	59	0	stim00_sf1_pattern1_cont1_shape1.png	0	59	0	268.288355620878	268.388376851764	0.100021230886341	stim00_sf1_pattern1_cont1_shape1.png	1	1	1	1	1	1	0	0	0	0	0	0	0	0	0	0	0	0	1	12
89.04052734375	0.0999960118770105	182355	60	15	stim15_sf2_pattern2_cont2_shape2.png	0	60	0	268.788343304617	268.888339316494	0.0999960118770105	stim15_sf2_pattern2_cont2_shape2.png	2	2	2	2	1	4	0	0	0	0	0	0	0	0	0	0	0	0	1	12
89.54052734375	0.100007741648369	183379	61	3	stim03_sf1_pattern1_cont2_shape2.png	0	61	0	269.288319845075	269.388327586723	0.100007741648369	stim03_sf1_pattern1_cont2_shape2.png	1	1	2	2	1	4	0	0	0	0	0	0	0	0	0	0	0	0	1	12
90.04052734375	0.0999807631742442	184403	62	8	stim08_sf2_pattern1_cont1_shape1.png	0	62	0	269.788320724807	269.888301487981	0.0999807631742442	stim08_sf2_pattern1_cont1_shape1.png	2	1	1	1	1	1	0	0	0	0	0	0	0	0	0	0	0	0	1	12
90.54052734375	0.100004809206439	185427	63	9	stim09_sf2_pattern1_cont1_shape2.png	0	63	0	270.288300197706	270.388305006913	0.100004809206439	stim09_sf2_pattern1_cont1_shape2.png	2	1	1	2	1	3	0	0	0	0	0	0	0	0	0	0	0	0	1	12
91.04052734375	0.100006861915972	186451	64	14	stim14_sf2_pattern2_cont2_shape1.png	0	64	0	270.788303716638	270.888310578554	0.100006861915972	stim14_sf2_pattern2_cont2_shape1.png	2	2	2	1	1	2	0	0	0	0	0	0	0	0	0	0	0	0	1	12
91.54052734375	0.0999317913774576	187475	65	1	stim01_sf1_pattern1_cont1_shape2.png	0	65	0	271.288288761178	271.388220552555	0.0999317913774576	stim01_sf1_pattern1_cont1_shape2.png	1	1	1	2	1	3	0	0	0	0	0	0	0	0	0	0	0	0	1	12
92.04052734375	0.100020057909205	188499	66	5	stim05_sf1_pattern2_cont1_shape2.png	0	66	0	271.788254451596	271.888274509505	0.100020057909205	stim05_sf1_pattern2_cont1_shape2.png	1	2	1	2	1	3	0	0	0	0	0	0	0	0	0	0	0	0	1	12
92.54052734375	0.1000045159617	189523	67	7	stim07_sf1_pattern2_cont2_shape2.png	0	67	1	272.28822747312	272.388231989082	0.1000045159617	stim07_sf1_pattern2_cont2_shape2.png	1	2	2	2	1	4	0	0	0	0	0	0	0	0	0	0	0	0	1	12
93.04052734375	0.0999370697736595	190547	68	7	stim07_sf1_pattern2_cont2_shape2.png	0	68	1	272.78823363125	272.888170701024	0.0999370697736595	stim07_sf1_pattern2_cont2_shape2.png	1	2	2	2	1	4	0	0	0	0	0	0	0	0	0	0	0	0	1	12
93.54052734375	0.0999734320666903	191571	69	13	stim13_sf2_pattern2_cont1_shape2.png	0	69	2	273.288213690639	273.388187122706	0.0999734320666903	stim13_sf2_pattern2_cont1_shape2.png	2	2	1	2	1	3	0	0	0	0	0	0	0	0	0	0	0	0	1	12
94.04052734375	0.0999760712657007	192595	70	10	stim10_sf2_pattern1_cont2_shape1.png	0	70	2	273.788220435257	273.888196506523	0.0999760712657007	stim10_sf2_pattern1_cont2_shape1.png	2	1	2	1	1	2	0	0	0	0	0	0	0	0	0	0	0	0	1	12
94.54052734375	0.0999919064579444	193619	71	13	stim13_sf2_pattern2_cont1_shape2.png	0	71	0	274.288185539186	274.388177445644	0.0999919064579444	stim13_sf2_pattern2_cont1_shape2.png	2	2	1	2	1	3	0	0	0	0	0	0	0	0	0	0	0	0	1	12
95.04052734375	0.0999828158837772	194643	72	15	stim15_sf2_pattern2_cont2_shape2.png	0	72	0	274.788191697317	274.8881745132	0.0999828158837772	stim15_sf2_pattern2_cont2_shape2.png	2	2	2	2	1	4	0	0	0	0	0	0	0	0	0	0	0	0	1	12
95.54052734375	0.100017125467275	195667	73	5	stim05_sf1_pattern2_cont1_shape2.png	0	73	0	275.288147710671	275.388164836138	0.100017125467275	stim05_sf1_pattern2_cont1_shape2.png	1	2	1	2	1	3	0	0	0	0	0	0	0	0	0	0	0	0	1	12
96.04052734375	0.0999889740141953	196691	74	11	stim11_sf2_pattern1_cont2_shape2.png	0	74	0	275.788170583726	275.88815955774	0.0999889740141953	stim11_sf2_pattern1_cont2_shape2.png	2	1	2	2	1	4	0	0	0	0	0	0	0	0	0	0	0	0	1	12
96.54052734375	0.0999995308084181	197715	75	4	stim04_sf1_pattern2_cont1_shape1.png	0	75	0	276.288174982392	276.3881745132	0.0999995308084181	stim04_sf1_pattern2_cont1_shape1.png	1	2	1	1	1	1	0	0	0	0	0	0	0	0	0	0	0	0	1	12
97.0400390625	0.100063458065051	198738	76	9	stim09_sf2_pattern1_cont1_shape2.png	0	76	0	276.788096686165	276.88816014423	0.100063458065051	stim09_sf2_pattern1_cont1_shape2.png	2	1	1	2	1	3	0	0	0	0	0	0	0	0	0	0	0	0	1	12
97.5400390625	0.099995425387533	199762	77	3	stim03_sf1_pattern1_cont2_shape2.png	0	77	0	277.288142432275	277.388137857663	0.099995425387533	stim03_sf1_pattern1_cont2_shape2.png	1	1	2	2	1	4	0	0	0	0	0	0	0	0	0	0	0	0	1	12
98.0400390625	0.10001859168915	200786	78	1	stim01_sf1_pattern1_cont1_shape2.png	0	78	0	277.788105483492	277.888124075182	0.10001859168915	stim01_sf1_pattern1_cont1_shape2.png	1	1	1	2	1	3	0	0	0	0	0	0	0	0	0	0	0	0	1	12
98.5400390625	0.0999575968744466	201810	79	10	stim10_sf2_pattern1_cont2_shape1.png	0	79	0	278.288127476815	278.38808507369	0.0999575968744466	stim10_sf2_pattern1_cont2_shape1.png	2	1	2	1	1	2	0	0	0	0	0	0	0	0	0	0	0	0	1	12
99.0400390625	0.0999746050438262	202834	80	6	stim06_sf1_pattern2_cont2_shape1.png	0	80	0	278.788107242959	278.888081848003	0.0999746050438262	stim06_sf1_pattern2_cont2_shape1.png	1	2	2	1	1	2	0	0	0	0	0	0	0	0	0	0	0	0	1	12
99.5400390625	0.0999845753503905	203858	81	12	stim12_sf2_pattern2_cont1_shape1.png	0	81	0	279.288093753721	279.388078329072	0.0999845753503905	stim12_sf2_pattern2_cont1_shape1.png	2	2	1	1	1	1	0	0	0	0	0	0	0	0	0	0	0	0	1	12
100.0400390625	0.0999971848559653	204882	82	0	stim00_sf1_pattern1_cont1_shape1.png	0	82	0	279.788080264483	279.888077449339	0.0999971848559653	stim00_sf1_pattern1_cont1_shape1.png	1	1	1	1	1	1	0	0	0	0	0	0	0	0	0	0	0	0	1	12
100.5400390625	0.100006861915972	205906	83	13	stim13_sf2_pattern2_cont1_shape2.png	0	83	0	280.288065309025	280.388072170941	0.100006861915972	stim13_sf2_pattern2_cont1_shape2.png	2	2	1	2	1	3	0	0	0	0	0	0	0	0	0	0	0	0	1	12
101.0400390625	0.0999968916094076	206930	84	8	stim08_sf2_pattern1_cont1_shape1.png	0	84	0	280.788056511696	280.888053403305	0.0999968916094076	stim08_sf2_pattern1_cont1_shape1.png	2	1	1	1	1	1	0	0	0	0	0	0	0	0	0	0	0	0	1	12
101.5400390625	0.0999965983664879	207954	85	14	stim14_sf2_pattern2_cont2_shape1.png	0	85	0	281.288038037304	281.388034635671	0.0999965983664879	stim14_sf2_pattern2_cont2_shape1.png	2	2	2	1	1	2	0	0	0	0	0	0	0	0	0	0	0	0	1	12
102.0400390625	0.0999963051217492	208978	86	2	stim02_sf1_pattern1_cont2_shape1.png	0	86	0	281.788032758908	281.88802906403	0.0999963051217492	stim02_sf1_pattern1_cont2_shape1.png	1	1	2	1	1	2	0	0	0	0	0	0	0	0	0	0	0	0	1	12
102.5400390625	0.100008914627324	210002	87	7	stim07_sf1_pattern2_cont2_shape2.png	0	87	0	282.288008126387	282.388017041014	0.100008914627324	stim07_sf1_pattern2_cont2_shape2.png	1	2	2	2	1	4	0	0	0	0	0	0	0	0	0	0	0	0	1	12
103.0400390625	0.0999652212267392	211026	88	11	stim11_sf2_pattern1_cont2_shape2.png	0	88	0	282.788008126387	282.887973347613	0.0999652212267392	stim11_sf2_pattern1_cont2_shape2.png	2	1	2	2	1	4	0	0	0	0	0	0	0	0	0	0	0	0	1	12
103.5400390625	0.100014486268265	212050	89	7	stim07_sf1_pattern2_cont2_shape2.png	0	89	0	283.287998449325	283.388012935593	0.100014486268265	stim07_sf1_pattern2_cont2_shape2.png	1	2	2	2	1	4	0	0	0	0	0	0	0	0	0	0	0	0	1	12
104.0400390625	0.0999963051235682	213074	90	10	stim10_sf2_pattern1_cont2_shape1.png	0	90	0	283.787984666842	283.887980971966	0.0999963051235682	stim10_sf2_pattern1_cont2_shape1.png	2	1	2	1	1	2	0	0	0	0	0	0	0	0	0	0	0	0	1	12
104.5400390625	0.0999235805356875	214098	91	6	stim06_sf1_pattern2_cont2_shape1.png	0	91	0	284.287961207299	284.387884787835	0.0999235805356875	stim06_sf1_pattern2_cont2_shape1.png	1	2	2	1	1	2	0	0	0	0	0	0	0	0	0	0	0	0	1	12
105.0400390625	0.0999960118788294	215122	92	5	stim05_sf1_pattern2_cont1_shape2.png	0	92	0	284.787959447833	284.887955459712	0.0999960118788294	stim05_sf1_pattern2_cont1_shape2.png	1	2	1	2	1	3	0	0	0	0	0	0	0	0	0	0	0	0	1	12
105.5400390625	0.0999707928676798	216146	93	4	stim04_sf1_pattern2_cont1_shape1.png	0	93	0	285.287941559931	285.387912352799	0.0999707928676798	stim04_sf1_pattern2_cont1_shape1.png	1	2	1	1	1	1	0	0	0	0	0	0	0	0	0	0	0	0	1	12
106.0400390625	0.0999446941259521	217170	94	9	stim09_sf2_pattern1_cont1_shape2.png	0	94	0	285.787941559931	285.887886254057	0.0999446941259521	stim09_sf2_pattern1_cont1_shape2.png	2	1	1	2	1	3	0	0	0	0	0	0	0	0	0	0	0	0	1	12
106.5400390625	0.0999992375654983	218194	95	8	stim08_sf2_pattern1_cont1_shape1.png	0	95	0	286.287921326075	286.38792056364	0.0999992375654983	stim08_sf2_pattern1_cont1_shape1.png	2	1	1	1	1	1	0	0	0	0	0	0	0	0	0	0	0	0	1	12
107.0400390625	0.100022110618738	219218	96	12	stim12_sf2_pattern2_cont1_shape1.png	0	96	0	286.787897573287	286.887919683906	0.100022110618738	stim12_sf2_pattern2_cont1_shape1.png	2	2	1	1	1	1	0	0	0	0	0	0	0	0	0	0	0	0	1	12
107.5400390625	0.0999728455790319	220242	97	3	stim03_sf1_pattern1_cont2_shape2.png	0	97	0	287.287901971951	287.38787481753	0.0999728455790319	stim03_sf1_pattern1_cont2_shape2.png	1	1	2	2	1	4	0	0	0	0	0	0	0	0	0	0	0	0	1	12
108.0400390625	0.0999775374857563	221266	98	13	stim13_sf2_pattern2_cont1_shape2.png	0	98	0	287.787884377294	287.88786191478	0.0999775374857563	stim13_sf2_pattern2_cont1_shape2.png	2	2	1	2	1	3	0	0	0	0	0	0	0	0	0	0	0	0	1	12
108.5400390625	0.100002463250348	222290	99	14	stim14_sf2_pattern2_cont2_shape1.png	0	99	0	288.287849481223	288.387851944473	0.100002463250348	stim14_sf2_pattern2_cont2_shape1.png	2	2	2	1	1	2	0	0	0	0	0	0	0	0	0	0	0	0	1	12
109.0400390625	0.0999957186322717	223314	100	1	stim01_sf1_pattern1_cont1_shape2.png	0	100	0	288.7878069608	288.887802679432	0.0999957186322717	stim01_sf1_pattern1_cont1_shape2.png	1	1	1	2	1	3	0	0	0	0	0	0	0	0	0	0	0	0	1	12
109.5400390625	0.0999763645104395	224338	101	15	stim15_sf2_pattern2_cont2_shape2.png	0	101	0	289.287819863548	289.387796228059	0.0999763645104395	stim15_sf2_pattern2_cont2_shape2.png	2	2	2	2	1	4	0	0	0	0	0	0	0	0	0	0	0	0	1	12
110.0400390625	0.0999731388219516	225362	102	0	stim00_sf1_pattern1_cont1_shape1.png	0	102	0	289.787846255535	289.887819394356	0.0999731388219516	stim00_sf1_pattern1_cont1_shape1.png	1	1	1	1	1	1	0	0	0	0	0	0	0	0	0	0	0	0	1	12
110.5400390625	0.0999901469913311	226386	103	2	stim02_sf1_pattern1_cont2_shape1.png	0	103	0	290.287810186486	290.387800333478	0.0999901469913311	stim02_sf1_pattern1_cont2_shape1.png	1	1	2	1	1	2	0	0	0	0	0	0	0	0	0	0	0	0	1	12
111.0400390625	0.0999942524122162	227410	104	13	stim13_sf2_pattern2_cont1_shape2.png	0	104	0	290.787799336447	290.887793588859	0.0999942524122162	stim13_sf2_pattern2_cont1_shape2.png	2	2	1	2	1	3	0	0	0	0	0	0	0	0	0	0	0	0	1	12
111.5400390625	0.100020644398683	228434	105	1	stim01_sf1_pattern1_cont1_shape2.png	0	105	0	291.287751830871	291.387772475269	0.100020644398683	stim01_sf1_pattern1_cont1_shape2.png	1	1	1	2	1	3	0	0	0	0	0	0	0	0	0	0	0	0	1	12
112.0400390625	0.0999567171420495	229458	106	3	stim03_sf1_pattern1_cont2_shape2.png	0	106	0	291.787760041712	291.887716758854	0.0999567171420495	stim03_sf1_pattern1_cont2_shape2.png	1	1	2	2	1	4	0	0	0	0	0	0	0	0	0	0	0	0	1	12
112.5400390625	0.0999895605018537	230482	107	5	stim05_sf1_pattern2_cont1_shape2.png	0	107	0	292.287796404005	292.387785964507	0.0999895605018537	stim05_sf1_pattern2_cont1_shape2.png	1	2	1	2	1	3	0	0	0	0	0	0	0	0	0	0	0	0	1	12
113.0400390625	0.0999426414164191	231506	108	2	stim02_sf1_pattern1_cont2_shape1.png	0	108	0	292.787769132285	292.887711773701	0.0999426414164191	stim02_sf1_pattern1_cont2_shape1.png	1	1	2	1	1	2	0	0	0	0	0	0	0	0	0	0	0	0	1	12
113.5400390625	0.0999001209929702	232530	109	9	stim09_sf2_pattern1_cont1_shape2.png	0	109	0	293.287767959308	293.387668080301	0.0999001209929702	stim09_sf2_pattern1_cont1_shape2.png	2	1	1	2	1	3	0	0	0	0	0	0	0	0	0	0	0	0	1	12
114.0400390625	0.0999939591674774	233554	110	12	stim12_sf2_pattern2_cont1_shape1.png	0	110	0	293.787758282246	293.887752241413	0.0999939591674774	stim12_sf2_pattern2_cont1_shape1.png	2	2	1	1	1	1	0	0	0	0	0	0	0	0	0	0	0	0	1	12
114.53955078125	0.0999784172199725	234577	111	8	stim08_sf2_pattern1_cont1_shape1.png	0	111	1	294.287737168657	294.387715585877	0.0999784172199725	stim08_sf2_pattern1_cont1_shape1.png	2	1	1	1	1	1	0	0	0	0	0	0	0	0	0	0	0	0	1	12
115.03955078125	0.0999743117990874	235601	112	8	stim08_sf2_pattern1_cont1_shape1.png	0	112	1	294.787743033543	294.887717345342	0.0999743117990874	stim08_sf2_pattern1_cont1_shape1.png	2	1	1	1	1	1	0	0	0	0	0	0	0	0	0	0	0	0	1	12
115.53955078125	0.10001038084738	236625	113	13	stim13_sf2_pattern2_cont1_shape2.png	0	113	2	295.287695821211	295.387706202058	0.10001038084738	stim13_sf2_pattern2_cont1_shape2.png	2	2	1	2	1	3	0	0	0	0	0	0	0	0	0	0	0	0	1	12
116.03955078125	0.0999983578331012	237649	114	5	stim05_sf1_pattern2_cont1_shape2.png	0	114	2	295.787696700943	295.887695058776	0.0999983578331012	stim05_sf1_pattern2_cont1_shape2.png	1	2	1	2	1	3	0	0	0	0	0	0	0	0	0	0	0	0	1	12
116.53955078125	0.100020644398683	238673	115	10	stim10_sf2_pattern1_cont2_shape1.png	0	115	0	296.28767529411	296.387695938509	0.100020644398683	stim10_sf2_pattern1_cont2_shape1.png	2	1	2	1	1	2	0	0	0	0	0	0	0	0	0	0	0	0	1	12
117.03955078125	0.0999942524122162	239697	116	8	stim08_sf2_pattern1_cont1_shape1.png	0	116	0	296.78767529411	296.887669546522	0.0999942524122162	stim08_sf2_pattern1_cont1_shape1.png	2	1	1	1	1	1	0	0	0	0	0	0	0	0	0	0	0	0	1	12
117.53955078125	0.0999880942817981	240721	117	7	stim07_sf1_pattern2_cont2_shape2.png	0	117	0	297.287662684605	297.387650778886	0.0999880942817981	stim07_sf1_pattern2_cont2_shape2.png	1	2	2	2	1	4	0	0	0	0	0	0	0	0	0	0	0	0	1	12
118.03955078125	0.100042344476606	241745	118	14	stim14_sf2_pattern2_cont2_shape1.png	0	118	0	297.787603742501	297.887646086978	0.100042344476606	stim14_sf2_pattern2_cont2_shape1.png	2	2	2	1	1	2	0	0	0	0	0	0	0	0	0	0	0	0	1	12
118.5478515625	0.0999575968762656	242786	119	0	stim00_sf1_pattern1_cont1_shape1.png	0	119	0	298.295996101024	298.3959536979	0.0999575968762656	stim00_sf1_pattern1_cont1_shape1.png	1	1	1	1	1	1	0	0	0	0	0	0	0	0	0	0	0	0	1	12
119.0478515625	0.0999927861903416	243810	120	4	stim04_sf1_pattern2_cont1_shape1.png	0	120	0	298.79596237793	298.89595516412	0.0999927861903416	stim04_sf1_pattern2_cont1_shape1.png	1	2	1	1	1	1	0	0	0	0	0	0	0	0	0	0	0	0	1	12
119.5478515625	0.099987214549401	244834	121	15	stim15_sf2_pattern2_cont2_shape2.png	0	121	0	299.295937452165	299.395924666715	0.099987214549401	stim15_sf2_pattern2_cont2_shape2.png	2	2	2	2	1	4	0	0	0	0	0	0	0	0	0	0	0	0	1	12
120.0478515625	0.0999960118788294	245858	122	11	stim11_sf2_pattern1_cont2_shape2.png	0	122	0	299.795936865676	299.895932877555	0.0999960118788294	stim11_sf2_pattern1_cont2_shape2.png	2	1	2	2	1	4	0	0	0	0	0	0	0	0	0	0	0	0	1	12
120.5478515625	0.0999998240531568	246882	123	6	stim06_sf1_pattern2_cont2_shape1.png	0	123	0	300.295918098042	300.395917922095	0.0999998240531568	stim06_sf1_pattern2_cont2_shape1.png	1	2	2	1	1	2	0	0	0	0	0	0	0	0	0	0	0	0	1	12
121.0478515625	0.100003636229303	247906	124	5	stim05_sf1_pattern2_cont1_shape2.png	0	124	0	300.795912233156	300.895915869385	0.100003636229303	stim05_sf1_pattern2_cont1_shape2.png	1	2	1	2	1	3	0	0	0	0	0	0	0	0	0	0	0	0	1	12
121.55615234375	0.100001876764509	248947	125	10	stim10_sf2_pattern1_cont2_shape1.png	0	125	0	301.304211339992	301.404213216756	0.100001876764509	stim10_sf2_pattern1_cont2_shape1.png	2	1	2	1	1	2	0	0	0	0	0	0	0	0	0	0	0	0	1	12
122.05615234375	0.100001290275031	249971	126	2	stim02_sf1_pattern1_cont2_shape1.png	0	126	0	301.804224242742	301.904225533017	0.100001290275031	stim02_sf1_pattern1_cont2_shape1.png	1	1	2	1	1	2	0	0	0	0	0	0	0	0	0	0	0	0	1	12
122.55615234375	0.100022697108216	250995	127	6	stim06_sf1_pattern2_cont2_shape1.png	0	127	0	302.304197557511	302.404220254619	0.100022697108216	stim06_sf1_pattern2_cont2_shape1.png	1	2	2	1	1	2	0	0	0	0	0	0	0	0	0	0	0	0	1	12
123.05615234375	0.0999957186340907	252019	128	8	stim08_sf2_pattern1_cont1_shape1.png	0	128	0	302.804198143998	302.904193862632	0.0999957186340907	stim08_sf2_pattern1_cont1_shape1.png	2	1	1	1	1	1	0	0	0	0	0	0	0	0	0	0	0	0	1	12
123.55615234375	0.0999828158837772	253043	129	7	stim07_sf1_pattern2_cont2_shape2.png	0	129	0	303.30417703041	303.404159846294	0.0999828158837772	stim07_sf1_pattern2_cont2_shape2.png	1	2	2	2	1	4	0	0	0	0	0	0	0	0	0	0	0	0	1	12
124.05615234375	0.0999807631742442	254067	130	0	stim00_sf1_pattern1_cont1_shape1.png	0	130	0	303.804187880449	303.904168643623	0.0999807631742442	stim00_sf1_pattern1_cont1_shape1.png	1	1	1	1	1	1	0	0	0	0	0	0	0	0	0	0	0	0	1	12
124.55615234375	0.10002973497285	255091	131	4	stim04_sf1_pattern2_cont1_shape1.png	0	131	0	304.304112516664	304.404142251637	0.10002973497285	stim04_sf1_pattern2_cont1_shape1.png	1	2	1	1	1	1	0	0	0	0	0	0	0	0	0	0	0	0	1	12
125.05615234375	0.099995425387533	256115	132	13	stim13_sf2_pattern2_cont1_shape2.png	0	132	0	304.804150638423	304.904146063811	0.099995425387533	stim13_sf2_pattern2_cont1_shape2.png	2	2	1	2	1	3	0	0	0	0	0	0	0	0	0	0	0	0	1	12
125.55615234375	0.10001008760446	257139	133	11	stim11_sf2_pattern1_cont2_shape2.png	0	133	0	305.304130404566	305.40414049217	0.10001008760446	stim11_sf2_pattern1_cont2_shape2.png	2	1	2	2	1	4	0	0	0	0	0	0	0	0	0	0	0	0	1	12
126.05615234375	0.100015952490139	258163	134	12	stim12_sf2_pattern2_cont1_shape1.png	0	134	0	305.804125126169	305.904141078659	0.100015952490139	stim12_sf2_pattern2_cont1_shape1.png	2	2	1	1	1	1	0	0	0	0	0	0	0	0	0	0	0	0	1	12
126.55615234375	0.0999860415704461	259187	135	9	stim09_sf2_pattern1_cont1_shape2.png	0	135	0	306.304113396398	306.404099437968	0.0999860415704461	stim09_sf2_pattern1_cont1_shape2.png	2	1	1	2	1	3	0	0	0	0	0	0	0	0	0	0	0	0	1	12
127.05615234375	0.0999924929474219	260211	136	3	stim03_sf1_pattern1_cont2_shape2.png	0	136	0	306.804105185556	306.904097678504	0.0999924929474219	stim03_sf1_pattern1_cont2_shape2.png	1	1	2	2	1	4	0	0	0	0	0	0	0	0	0	0	0	0	1	12
127.55615234375	0.0999171291623497	261235	137	15	stim15_sf2_pattern2_cont2_shape2.png	0	137	0	307.304081139524	307.403998268686	0.0999171291623497	stim15_sf2_pattern2_cont2_shape2.png	2	2	2	2	1	4	0	0	0	0	0	0	0	0	0	0	0	0	1	12
128.05615234375	0.0999960118770105	262259	138	1	stim01_sf1_pattern1_cont1_shape2.png	0	138	0	307.804078207082	307.904074218959	0.0999960118770105	stim01_sf1_pattern1_cont1_shape2.png	1	1	1	2	1	3	0	0	0	0	0	0	0	0	0	0	0	0	1	12
128.55615234375	0.0999927861885226	263283	139	14	stim14_sf2_pattern2_cont2_shape1.png	0	139	0	308.304069996242	308.404062782431	0.0999927861885226	stim14_sf2_pattern2_cont2_shape1.png	2	2	2	1	1	2	0	0	0	0	0	0	0	0	0	0	0	0	1	12
129.05615234375	0.100001290275031	264307	140	12	stim12_sf2_pattern2_cont1_shape1.png	0	140	0	308.804033633949	308.904034924224	0.100001290275031	stim12_sf2_pattern2_cont1_shape1.png	2	2	1	1	1	1	0	0	0	0	0	0	0	0	0	0	0	0	1	12
129.55615234375	0.100018005199672	265331	141	7	stim07_sf1_pattern2_cont2_shape2.png	0	141	0	309.304045070476	309.404063075675	0.100018005199672	stim07_sf1_pattern2_cont2_shape2.png	1	2	2	2	1	4	0	0	0	0	0	0	0	0	0	0	0	0	1	12
130.05615234375	0.099993372679819	266355	142	9	stim09_sf2_pattern1_cont1_shape2.png	0	142	0	309.80403304746	309.904026420139	0.099993372679819	stim09_sf2_pattern1_cont1_shape2.png	2	1	1	2	1	3	0	0	0	0	0	0	0	0	0	0	0	0	1	12
130.55615234375	0.100008621382585	267379	143	4	stim04_sf1_pattern2_cont1_shape1.png	0	143	0	310.304009294672	310.404017916055	0.100008621382585	stim04_sf1_pattern2_cont1_shape1.png	1	2	1	1	1	1	0	0	0	0	0	0	0	0	0	0	0	0	1	12
131.05615234375	0.099999530810237	268403	144	10	stim10_sf2_pattern1_cont2_shape1.png	0	144	0	310.804008708183	310.904008238993	0.099999530810237	stim10_sf2_pattern1_cont2_shape1.png	2	1	2	1	1	2	0	0	0	0	0	0	0	0	0	0	0	0	1	12
131.55615234375	0.0999963051217492	269427	145	0	stim00_sf1_pattern1_cont1_shape1.png	0	145	0	311.303991113526	311.403987418647	0.0999963051217492	stim00_sf1_pattern1_cont1_shape1.png	1	1	1	1	1	1	0	0	0	0	0	0	0	0	0	0	0	0	1	12
132.05615234375	0.0999907334808086	270451	146	1	stim01_sf1_pattern1_cont1_shape2.png	0	146	0	311.803970586425	311.903961319906	0.0999907334808086	stim01_sf1_pattern1_cont1_shape2.png	1	1	1	2	1	3	0	0	0	0	0	0	0	0	0	0	0	0	1	12
132.55615234375	0.100009794359721	271475	147	14	stim14_sf2_pattern2_cont2_shape1.png	0	147	0	312.30395592421	312.403965718569	0.100009794359721	stim14_sf2_pattern2_cont2_shape1.png	2	2	2	1	1	2	0	0	0	0	0	0	0	0	0	0	0	0	1	12
133.05615234375	0.0999927861903416	272499	148	8	stim08_sf2_pattern1_cont1_shape1.png	0	148	0	312.803946247148	312.903939033338	0.0999927861903416	stim08_sf2_pattern1_cont1_shape1.png	2	1	1	1	1	1	0	0	0	0	0	0	0	0	0	0	0	0	1	12
133.55615234375	0.100016832222536	273523	149	5	stim05_sf1_pattern2_cont1_shape2.png	0	149	0	313.303929532223	313.403946364446	0.100016832222536	stim05_sf1_pattern2_cont1_shape2.png	1	2	1	2	1	3	0	0	0	0	0	0	0	0	0	0	0	0	1	12
134.0556640625	0.0999684469152271	274546	150	6	stim06_sf1_pattern2_cont2_shape1.png	0	150	0	313.80394096875	313.903909415665	0.0999684469152271	stim06_sf1_pattern2_cont2_shape1.png	1	2	2	1	1	2	0	0	0	0	0	0	0	0	0	0	0	0	1	12
134.5556640625	0.0999704996247601	275570	151	2	stim02_sf1_pattern1_cont2_shape1.png	0	151	0	314.30392659978	314.403897099404	0.0999704996247601	stim02_sf1_pattern1_cont2_shape1.png	1	1	2	1	1	2	0	0	0	0	0	0	0	0	0	0	0	0	1	12
135.0556640625	0.099975778020962	276594	152	3	stim03_sf1_pattern1_cont2_shape2.png	0	152	0	314.803913697031	314.903889475052	0.099975778020962	stim03_sf1_pattern1_cont2_shape2.png	1	1	2	2	1	4	0	0	0	0	0	0	0	0	0	0	0	0	1	12
135.5556640625	0.099977830730495	277618	153	15	stim15_sf2_pattern2_cont2_shape2.png	0	153	0	315.303882613136	315.403860443867	0.099977830730495	stim15_sf2_pattern2_cont2_shape2.png	2	2	2	2	1	4	0	0	0	0	0	0	0	0	0	0	0	0	1	12
136.0556640625	0.0999880942817981	278642	154	11	stim11_sf2_pattern1_cont2_shape2.png	0	154	0	315.803877334738	315.90386542902	0.0999880942817981	stim11_sf2_pattern1_cont2_shape2.png	2	1	2	2	1	4	0	0	0	0	0	0	0	0	0	0	0	0	1	12
136.5556640625	0.099995425389352	279666	155	13	stim13_sf2_pattern2_cont1_shape2.png	0	155	0	316.303860326569	316.403855751958	0.099995425389352	stim13_sf2_pattern2_cont1_shape2.png	2	2	1	2	1	3	0	0	0	0	0	0	0	0	0	0	0	0	1	12
137.0556640625	0.100026802529101	280690	156	15	stim15_sf2_pattern2_cont2_shape2.png	0	156	0	316.80385563466	316.903882437189	0.100026802529101	stim15_sf2_pattern2_cont2_shape2.png	2	2	2	2	1	4	0	0	0	0	0	0	0	0	0	0	0	0	1	12
137.5556640625	0.0999971848541463	281714	157	5	stim05_sf1_pattern2_cont1_shape2.png	0	157	0	317.303860913058	317.403858097912	0.0999971848541463	stim05_sf1_pattern2_cont1_shape2.png	1	2	1	2	1	3	0	0	0	0	0	0	0	0	0	0	0	0	1	12
138.0556640625	0.100012726801651	282738	158	4	stim04_sf1_pattern2_cont1_shape1.png	0	158	0	317.803829535918	317.90384226272	0.100012726801651	stim04_sf1_pattern2_cont1_shape1.png	1	2	1	1	1	1	0	0	0	0	0	0	0	0	0	0	0	0	1	12
138.5556640625	0.100007448405449	283762	159	14	stim14_sf2_pattern2_cont2_shape1.png	0	159	0	318.303818685879	318.403826134285	0.100007448405449	stim14_sf2_pattern2_cont2_shape1.png	2	2	2	1	1	2	0	0	0	0	0	0	0	0	0	0	0	0	1	12
139.0556640625	0.0999983578331012	284786	160	12	stim12_sf2_pattern2_cont1_shape1.png	0	160	0	318.803819272367	318.9038176302	0.0999983578331012	stim12_sf2_pattern2_cont1_shape1.png	2	2	1	1	1	1	0	0	0	0	0	0	0	0	0	0	0	0	1	12
139.5556640625	0.100011553824515	285810	161	1	stim01_sf1_pattern1_cont1_shape2.png	0	161	0	319.303806369619	319.403817923443	0.100011553824515	stim01_sf1_pattern1_cont1_shape2.png	1	1	1	2	1	3	0	0	0	0	0	0	0	0	0	0	0	0	1	12
140.0556640625	0.100018005199672	286834	162	7	stim07_sf1_pattern2_cont2_shape2.png	0	162	0	319.803772939769	319.903790944969	0.100018005199672	stim07_sf1_pattern2_cont2_shape2.png	1	2	2	2	1	4	0	0	0	0	0	0	0	0	0	0	0	0	1	12
140.5556640625	0.100031787682383	287858	163	9	stim09_sf2_pattern1_cont1_shape2.png	0	163	0	320.303745668049	320.403777455731	0.100031787682383	stim09_sf2_pattern1_cont1_shape2.png	2	1	1	2	1	3	0	0	0	0	0	0	0	0	0	0	0	0	1	12
141.0556640625	0.0999989443207596	288882	164	13	stim13_sf2_pattern2_cont1_shape2.png	0	164	0	320.803766488394	320.903765432715	0.0999989443207596	stim13_sf2_pattern2_cont1_shape2.png	2	2	1	2	1	3	0	0	0	0	0	0	0	0	0	0	0	0	1	12
141.5556640625	0.0999605293181958	289906	165	8	stim08_sf2_pattern1_cont1_shape1.png	0	165	0	321.303758277554	321.403718806872	0.0999605293181958	stim08_sf2_pattern1_cont1_shape1.png	2	1	1	1	1	1	0	0	0	0	0	0	0	0	0	0	0	0	1	12
142.0556640625	0.100033840391916	290930	166	6	stim06_sf1_pattern2_cont2_shape1.png	0	166	0	321.803711651712	321.903745492104	0.100033840391916	stim06_sf1_pattern2_cont2_shape1.png	1	2	2	1	1	2	0	0	0	0	0	0	0	0	0	0	0	0	1	12
142.5556640625	0.100020057911024	291954	167	0	stim00_sf1_pattern1_cont1_shape1.png	0	167	0	322.303710771977	322.403730829888	0.100020057911024	stim00_sf1_pattern1_cont1_shape1.png	1	1	1	1	1	1	0	0	0	0	0	0	0	0	0	0	0	0	1	12
143.0556640625	0.0999957186340907	292978	168	10	stim10_sf2_pattern1_cont2_shape1.png	0	168	0	322.803725140948	322.903720859582	0.0999957186340907	stim10_sf2_pattern1_cont2_shape1.png	2	1	2	1	1	2	0	0	0	0	0	0	0	0	0	0	0	0	1	12
143.5556640625	0.100009501114982	294002	169	3	stim03_sf1_pattern1_cont2_shape2.png	0	169	0	323.303702267893	323.403711769008	0.100009501114982	stim03_sf1_pattern1_cont2_shape2.png	1	1	2	2	1	4	0	0	0	0	0	0	0	0	0	0	0	0	1	12
144.0556640625	0.0999939591674774	295026	170	11	stim11_sf2_pattern1_cont2_shape2.png	0	170	0	323.803683793503	323.903677752671	0.0999939591674774	stim11_sf2_pattern1_cont2_shape2.png	2	1	2	2	1	4	0	0	0	0	0	0	0	0	0	0	0	0	1	12
144.5556640625	0.100000117297895	296050	171	2	stim02_sf1_pattern1_cont2_shape1.png	0	171	0	324.303667371822	324.403667489119	0.100000117297895	stim02_sf1_pattern1_cont2_shape1.png	1	1	2	1	1	2	0	0	0	0	0	0	0	0	0	0	0	0	1	12
170.01318359375	0.0999743117990874	348187	172	7	stim07_sf1_pattern2_cont2_shape2.png	1	0	0	349.761407349759	349.861381661558	0.0999743117990874	stim07_sf1_pattern2_cont2_shape2.png	1	2	2	2	1	4	0	0	0	0	0	0	0	0	0	0	0	0	1	12
170.51318359375	0.0999980645883625	349211	173	2	stim02_sf1_pattern1_cont2_shape1.png	1	1	0	350.261375679374	350.361373743963	0.0999980645883625	stim02_sf1_pattern1_cont2_shape1.png	1	1	2	1	1	2	0	0	0	0	0	0	0	0	0	0	0	0	1	12
171.01318359375	0.100016245734878	350235	174	14	stim14_sf2_pattern2_cont2_shape1.png	1	2	0	350.761351046853	350.861367292588	0.100016245734878	stim14_sf2_pattern2_cont2_shape1.png	2	2	2	1	1	2	0	0	0	0	0	0	0	0	0	0	0	0	1	12
171.51318359375	0.100006275426495	351259	175	4	stim04_sf1_pattern2_cont1_shape1.png	1	3	0	351.261358084717	351.361364360144	0.100006275426495	stim04_sf1_pattern2_cont1_shape1.png	1	2	1	1	1	1	0	0	0	0	0	0	0	0	0	0	0	0	1	12
172.01318359375	0.0999790037076309	352283	176	6	stim06_sf1_pattern2_cont2_shape1.png	1	4	0	351.761374799642	351.86135380335	0.0999790037076309	stim06_sf1_pattern2_cont2_shape1.png	1	2	2	1	1	2	0	0	0	0	0	0	0	0	0	0	0	0	1	12
172.51318359375	0.100005395695916	353307	177	0	stim00_sf1_pattern1_cont1_shape1.png	1	5	0	352.261337850859	352.361343246555	0.100005395695916	stim00_sf1_pattern1_cont1_shape1.png	1	1	1	1	1	1	0	0	0	0	0	0	0	0	0	0	0	0	1	12
173.01318359375	0.0999998240531568	354331	178	15	stim15_sf2_pattern2_cont2_shape2.png	1	6	0	352.761355738763	352.861355562816	0.0999998240531568	stim15_sf2_pattern2_cont2_shape2.png	2	2	2	2	1	4	0	0	0	0	0	0	0	0	0	0	0	0	1	12
173.51318359375	0.100010967336857	355355	179	11	stim11_sf2_pattern1_cont2_shape2.png	1	7	0	353.261329933264	353.361340900601	0.100010967336857	stim11_sf2_pattern1_cont2_shape2.png	2	1	2	2	1	4	0	0	0	0	0	0	0	0	0	0	0	0	1	12
174.01318359375	0.0999898537484114	356379	180	1	stim01_sf1_pattern1_cont1_shape2.png	1	8	0	353.761329346775	353.861319200523	0.0999898537484114	stim01_sf1_pattern1_cont1_shape2.png	1	1	1	2	1	3	0	0	0	0	0	0	0	0	0	0	0	0	1	12
174.51318359375	0.0999878010370594	357403	181	3	stim03_sf1_pattern1_cont2_shape2.png	1	9	0	354.26131321834	354.361301019377	0.0999878010370594	stim03_sf1_pattern1_cont2_shape2.png	1	1	2	2	1	4	0	0	0	0	0	0	0	0	0	0	0	0	1	12
175.01318359375	0.0999930794350803	358427	182	13	stim13_sf2_pattern2_cont1_shape2.png	1	10	0	354.761305887232	354.861298966667	0.0999930794350803	stim13_sf2_pattern2_cont1_shape2.png	2	2	1	2	1	3	0	0	0	0	0	0	0	0	0	0	0	0	1	12
175.51318359375	0.100032374170041	359451	183	5	stim05_sf1_pattern2_cont1_shape2.png	1	11	0	355.261251343793	355.361283717963	0.100032374170041	stim05_sf1_pattern2_cont1_shape2.png	1	2	1	2	1	3	0	0	0	0	0	0	0	0	0	0	0	0	1	12
176.01318359375	0.0999605293181958	360475	184	8	stim08_sf2_pattern1_cont1_shape1.png	1	12	0	355.761276856047	355.861237385365	0.0999605293181958	stim08_sf2_pattern1_cont1_shape1.png	2	1	1	1	1	1	0	0	0	0	0	0	0	0	0	0	0	0	1	12
176.51318359375	0.0999942524103972	361499	185	10	stim10_sf2_pattern1_cont2_shape1.png	1	13	0	356.261265126275	356.361259378686	0.0999942524103972	stim10_sf2_pattern1_cont2_shape1.png	2	1	2	1	1	2	0	0	0	0	0	0	0	0	0	0	0	0	1	12
177.01318359375	0.099995425389352	362523	186	9	stim09_sf2_pattern1_cont1_shape2.png	1	14	0	356.761256035701	356.86125146109	0.099995425389352	stim09_sf2_pattern1_cont1_shape2.png	2	1	1	2	1	3	0	0	0	0	0	0	0	0	0	0	0	0	1	12
177.51318359375	0.0999839888609131	363547	187	12	stim12_sf2_pattern2_cont1_shape1.png	1	15	0	357.26125251677	357.361236505631	0.0999839888609131	stim12_sf2_pattern2_cont1_shape1.png	2	2	1	1	1	1	0	0	0	0	0	0	0	0	0	0	0	0	1	12
178.01318359375	0.0999942524122162	364571	188	5	stim05_sf1_pattern2_cont1_shape2.png	1	16	0	357.761231989669	357.861226242081	0.0999942524122162	stim05_sf1_pattern2_cont1_shape2.png	1	2	1	2	1	3	0	0	0	0	0	0	0	0	0	0	0	0	1	12
178.51318359375	0.100005395694097	365595	189	9	stim09_sf2_pattern1_cont1_shape2.png	1	17	0	358.261200905774	358.361206301468	0.100005395694097	stim09_sf2_pattern1_cont1_shape2.png	2	1	1	2	1	3	0	0	0	0	0	0	0	0	0	0	0	0	1	12
179.01318359375	0.0999834023732546	366619	190	6	stim06_sf1_pattern2_cont2_shape1.png	1	18	0	358.76121908692	358.861202489294	0.0999834023732546	stim06_sf1_pattern2_cont2_shape1.png	1	2	2	1	1	2	0	0	0	0	0	0	0	0	0	0	0	0	1	12
179.51318359375	0.100001290275031	367643	191	13	stim13_sf2_pattern2_cont1_shape2.png	1	19	1	359.26118360436	359.361184894635	0.100001290275031	stim13_sf2_pattern2_cont1_shape2.png	2	2	1	2	1	3	0	0	0	0	0	0	0	0	0	0	0	0	1	12
180.01318359375	0.0999942524122162	368667	192	13	stim13_sf2_pattern2_cont1_shape2.png	1	20	1	359.761183311115	359.861177563527	0.0999942524122162	stim13_sf2_pattern2_cont1_shape2.png	2	2	1	2	1	3	0	0	0	0	0	0	0	0	0	0	0	0	1	12
180.5126953125	0.0999919064579444	369690	193	3	stim03_sf1_pattern1_cont2_shape2.png	1	21	2	360.261169528634	360.361161435092	0.0999919064579444	stim03_sf1_pattern1_cont2_shape2.png	1	1	2	2	1	4	0	0	0	0	0	0	0	0	0	0	0	0	1	12
181.0126953125	0.0999948389016936	370714	194	5	stim05_sf1_pattern2_cont1_shape2.png	1	22	2	360.76116043806	360.861155276962	0.0999948389016936	stim05_sf1_pattern2_cont1_shape2.png	1	2	1	2	1	3	0	0	0	0	0	0	0	0	0	0	0	0	1	12
181.5126953125	0.10000158351977	371738	195	13	stim13_sf2_pattern2_cont1_shape2.png	1	23	0	361.261139031227	361.361140614747	0.10000158351977	stim13_sf2_pattern2_cont1_shape2.png	2	2	1	2	1	3	0	0	0	0	0	0	0	0	0	0	0	0	1	12
182.0126953125	0.0999986510760209	372762	196	14	stim14_sf2_pattern2_cont2_shape1.png	1	24	0	361.761135219051	361.861133870127	0.0999986510760209	stim14_sf2_pattern2_cont2_shape1.png	2	2	2	1	1	2	0	0	0	0	0	0	0	0	0	0	0	0	1	12
182.5126953125	0.0999960118788294	373786	197	1	stim01_sf1_pattern1_cont1_shape2.png	1	25	0	362.261101495957	362.361097507835	0.0999960118788294	stim01_sf1_pattern1_cont1_shape2.png	1	1	1	2	1	3	0	0	0	0	0	0	0	0	0	0	0	0	1	12
183.0126953125	0.100016245733059	374810	198	10	stim10_sf2_pattern1_cont2_shape1.png	1	26	0	362.761087713476	362.861103959209	0.100016245733059	stim10_sf2_pattern1_cont2_shape1.png	2	1	2	1	1	2	0	0	0	0	0	0	0	0	0	0	0	0	1	12
183.5126953125	0.100019178176808	375834	199	7	stim07_sf1_pattern2_cont2_shape2.png	1	27	0	363.261085074277	363.361104252454	0.100019178176808	stim07_sf1_pattern2_cont2_shape2.png	1	2	2	2	1	4	0	0	0	0	0	0	0	0	0	0	0	0	1	12
184.0126953125	0.100023283597693	376858	200	15	stim15_sf2_pattern2_cont2_shape2.png	1	28	0	363.761073637748	363.861096921346	0.100023283597693	stim15_sf2_pattern2_cont2_shape2.png	2	2	2	2	1	4	0	0	0	0	0	0	0	0	0	0	0	0	1	12
184.5126953125	0.0999575968744466	377882	201	12	stim12_sf2_pattern2_cont1_shape1.png	1	29	0	364.261039914654	364.360997511529	0.0999575968744466	stim12_sf2_pattern2_cont1_shape1.png	2	2	1	1	1	1	0	0	0	0	0	0	0	0	0	0	0	0	1	12
185.0126953125	0.100018884932069	378906	202	4	stim04_sf1_pattern2_cont1_shape1.png	1	30	0	364.761005898317	364.861024783249	0.100018884932069	stim04_sf1_pattern2_cont1_shape1.png	1	2	1	1	1	1	0	0	0	0	0	0	0	0	0	0	0	0	1	12
185.5126953125	0.0999869213046622	379930	203	8	stim08_sf2_pattern1_cont1_shape1.png	1	31	0	365.261017628089	365.361004549393	0.0999869213046622	stim08_sf2_pattern1_cont1_shape1.png	2	1	1	1	1	1	0	0	0	0	0	0	0	0	0	0	0	0	1	12
186.0126953125	0.100026216041442	380954	204	11	stim11_sf2_pattern1_cont2_shape2.png	1	32	0	365.760991529345	365.861017745387	0.100026216041442	stim11_sf2_pattern1_cont2_shape2.png	2	1	2	2	1	4	0	0	0	0	0	0	0	0	0	0	0	0	1	12
186.5126953125	0.0999523184764257	381978	205	3	stim03_sf1_pattern1_cont2_shape2.png	1	33	0	366.261010296981	366.360962615458	0.0999523184764257	stim03_sf1_pattern1_cont2_shape2.png	1	1	2	2	1	4	0	0	0	0	0	0	0	0	0	0	0	0	1	12
187.0126953125	0.100001290275031	383002	206	0	stim00_sf1_pattern1_cont1_shape1.png	1	34	0	366.760999153697	366.861000443972	0.100001290275031	stim00_sf1_pattern1_cont1_shape1.png	1	1	1	1	1	1	0	0	0	0	0	0	0	0	0	0	0	0	1	12
187.5126953125	0.100000997032112	384026	207	2	stim02_sf1_pattern1_cont2_shape1.png	1	35	0	367.260988010414	367.360989007446	0.100000997032112	stim02_sf1_pattern1_cont2_shape1.png	1	1	2	1	1	2	0	0	0	0	0	0	0	0	0	0	0	0	1	12
188.0126953125	0.0999886807712755	385050	208	15	stim15_sf2_pattern2_cont2_shape2.png	1	36	0	367.760980972551	367.860969653322	0.0999886807712755	stim15_sf2_pattern2_cont2_shape2.png	2	2	2	2	1	4	0	0	0	0	0	0	0	0	0	0	0	0	1	12
188.5126953125	0.10006375130979	386074	209	7	stim07_sf1_pattern2_cont2_shape2.png	1	37	0	368.260919684493	368.360983435803	0.10006375130979	stim07_sf1_pattern2_cont2_shape2.png	1	2	2	2	1	4	0	0	0	0	0	0	0	0	0	0	0	0	1	12
189.0126953125	0.0999983578312822	387098	210	10	stim10_sf2_pattern1_cont2_shape1.png	1	38	0	368.760977453619	368.860975811451	0.0999983578312822	stim10_sf2_pattern1_cont2_shape1.png	2	1	2	1	1	2	0	0	0	0	0	0	0	0	0	0	0	0	1	12
189.5126953125	0.0999968916094076	388122	211	11	stim11_sf2_pattern1_cont2_shape2.png	1	39	0	369.260954873809	369.360951765419	0.0999968916094076	stim11_sf2_pattern1_cont2_shape2.png	2	1	2	2	1	4	0	0	0	0	0	0	0	0	0	0	0	0	1	12
190.0126953125	0.0999942524122162	389146	212	8	stim08_sf2_pattern1_cont1_shape1.png	1	40	0	369.760943730525	369.860937982938	0.0999942524122162	stim08_sf2_pattern1_cont1_shape1.png	2	1	1	1	1	1	0	0	0	0	0	0	0	0	0	0	0	0	1	12
190.5126953125	0.0999787104628922	390170	213	12	stim12_sf2_pattern2_cont1_shape1.png	1	41	0	370.260944317015	370.360923027478	0.0999787104628922	stim12_sf2_pattern2_cont1_shape1.png	2	2	1	1	1	1	0	0	0	0	0	0	0	0	0	0	0	0	1	12
191.0126953125	0.100005982183575	391194	214	6	stim06_sf1_pattern2_cont2_shape1.png	1	42	0	370.76088537491	370.860891357093	0.100005982183575	stim06_sf1_pattern2_cont2_shape1.png	1	2	2	1	1	2	0	0	0	0	0	0	0	0	0	0	0	0	1	12
191.5126953125	0.100028268749156	392218	215	9	stim09_sf2_pattern1_cont1_shape2.png	1	43	0	371.260861035635	371.360889304384	0.100028268749156	stim09_sf2_pattern1_cont1_shape2.png	2	1	1	2	1	3	0	0	0	0	0	0	0	0	0	0	0	0	1	12
192.0126953125	0.0999977713436238	393242	216	1	stim01_sf1_pattern1_cont1_shape2.png	1	44	0	371.760896518193	371.860894289537	0.0999977713436238	stim01_sf1_pattern1_cont1_shape2.png	1	1	1	2	1	3	0	0	0	0	0	0	0	0	0	0	0	0	1	12
192.5126953125	0.0999851618398679	394266	217	2	stim02_sf1_pattern1_cont2_shape1.png	1	45	0	372.260886547887	372.360871709727	0.0999851618398679	stim02_sf1_pattern1_cont2_shape1.png	1	1	2	1	1	2	0	0	0	0	0	0	0	0	0	0	0	0	1	12
193.0126953125	0.0999558374096523	395290	218	14	stim14_sf2_pattern2_cont2_shape1.png	1	46	0	372.760864847809	372.860820685219	0.0999558374096523	stim14_sf2_pattern2_cont2_shape1.png	2	2	2	1	1	2	0	0	0	0	0	0	0	0	0	0	0	0	1	12
193.5126953125	0.0999584766068438	396314	219	5	stim05_sf1_pattern2_cont1_shape2.png	1	47	0	373.260877750559	373.360836227166	0.0999584766068438	stim05_sf1_pattern2_cont1_shape2.png	1	2	1	2	1	3	0	0	0	0	0	0	0	0	0	0	0	0	1	12
194.0126953125	0.0999939591674774	397338	220	4	stim04_sf1_pattern2_cont1_shape1.png	1	48	0	373.760850478839	373.860844438006	0.0999939591674774	stim04_sf1_pattern2_cont1_shape1.png	1	2	1	1	1	1	0	0	0	0	0	0	0	0	0	0	0	0	1	12
194.5126953125	0.0999769509980979	398362	221	13	stim13_sf2_pattern2_cont1_shape2.png	1	49	0	374.260844027465	374.360820978463	0.0999769509980979	stim13_sf2_pattern2_cont1_shape2.png	2	2	1	2	1	3	0	0	0	0	0	0	0	0	0	0	0	0	1	12
195.0126953125	0.0999992375654983	399386	222	3	stim03_sf1_pattern1_cont2_shape2.png	1	50	0	374.760825553074	374.86082479064	0.0999992375654983	stim03_sf1_pattern1_cont2_shape2.png	1	1	2	2	1	4	0	0	0	0	0	0	0	0	0	0	0	0	1	12
195.5126953125	0.100002170007429	400410	223	0	stim00_sf1_pattern1_cont1_shape1.png	1	51	0	375.26080004082	375.360802210827	0.100002170007429	stim00_sf1_pattern1_cont1_shape1.png	1	1	1	1	1	1	0	0	0	0	0	0	0	0	0	0	0	0	1	12
196.0126953125	0.0999960118770105	401434	224	15	stim15_sf2_pattern2_cont2_shape2.png	1	52	0	375.760801507042	375.860797518919	0.0999960118770105	stim15_sf2_pattern2_cont2_shape2.png	2	2	2	2	1	4	0	0	0	0	0	0	0	0	0	0	0	0	1	12
196.5126953125	0.0999992375636793	402458	225	13	stim13_sf2_pattern2_cont1_shape2.png	1	53	1	376.260771596124	376.360770833688	0.0999992375636793	stim13_sf2_pattern2_cont1_shape2.png	2	2	1	2	1	3	0	0	0	0	0	0	0	0	0	0	0	0	1	12
197.0126953125	0.0999936659227387	403482	226	13	stim13_sf2_pattern2_cont1_shape2.png	1	54	1	376.76077746101	376.860771126932	0.0999936659227387	stim13_sf2_pattern2_cont1_shape2.png	2	2	1	2	1	3	0	0	0	0	0	0	0	0	0	0	0	0	1	12
197.51220703125	0.0999963051217492	404505	227	8	stim08_sf2_pattern1_cont1_shape1.png	1	55	2	377.260739046007	377.360735351129	0.0999963051217492	stim08_sf2_pattern1_cont1_shape1.png	2	1	1	1	1	1	0	0	0	0	0	0	0	0	0	0	0	0	1	12
198.01220703125	0.0999901469931501	405529	228	4	stim04_sf1_pattern2_cont1_shape1.png	1	56	2	377.760756347419	377.860746494413	0.0999901469931501	stim04_sf1_pattern2_cont1_shape1.png	1	2	1	1	1	1	0	0	0	0	0	0	0	0	0	0	0	0	1	12
198.51220703125	0.0999781239752338	406553	229	2	stim02_sf1_pattern1_cont2_shape1.png	1	57	0	378.260730835167	378.360708959142	0.0999781239752338	stim02_sf1_pattern1_cont2_shape1.png	1	1	2	1	1	2	0	0	0	0	0	0	0	0	0	0	0	0	1	12
199.01220703125	0.100014779513003	407577	230	4	stim04_sf1_pattern2_cont1_shape1.png	1	58	0	378.760723797302	378.860738576815	0.100014779513003	stim04_sf1_pattern2_cont1_shape1.png	1	2	1	1	1	1	0	0	0	0	0	0	0	0	0	0	0	0	1	12
199.51220703125	0.100015366000662	408601	231	6	stim06_sf1_pattern2_cont2_shape1.png	1	59	0	379.260673652529	379.360689018529	0.100015366000662	stim06_sf1_pattern2_cont2_shape1.png	1	2	2	1	1	2	0	0	0	0	0	0	0	0	0	0	0	0	1	12
200.01220703125	0.0992579159828892	409625	232	14	stim14_sf2_pattern2_cont2_shape1.png	1	60	0	379.76136512258	379.860623038563	0.0992579159828892	stim14_sf2_pattern2_cont2_shape1.png	2	2	2	1	1	2	0	0	0	0	0	0	0	0	0	0	0	0	1	12
200.51220703125	0.0999866280599235	410649	233	5	stim05_sf1_pattern2_cont1_shape2.png	1	61	0	380.260638756457	380.360625384517	0.0999866280599235	stim05_sf1_pattern2_cont1_shape2.png	1	2	1	2	1	3	0	0	0	0	0	0	0	0	0	0	0	0	1	12
201.01220703125	0.100014779513003	411673	234	0	stim00_sf1_pattern1_cont1_shape1.png	1	62	0	380.760641688899	380.860656468412	0.100014779513003	stim00_sf1_pattern1_cont1_shape1.png	1	1	1	1	1	1	0	0	0	0	0	0	0	0	0	0	0	0	1	12
201.51220703125	0.100033840391916	412697	235	7	stim07_sf1_pattern2_cont2_shape2.png	1	63	0	381.260623800998	381.360657641389	0.100033840391916	stim07_sf1_pattern2_cont2_shape2.png	1	2	2	2	1	4	0	0	0	0	0	0	0	0	0	0	0	0	1	12
202.01220703125	0.0999986510778399	413721	236	3	stim03_sf1_pattern1_cont2_shape2.png	1	64	0	381.760642861876	381.860641512954	0.0999986510778399	stim03_sf1_pattern1_cont2_shape2.png	1	1	2	2	1	4	0	0	0	0	0	0	0	0	0	0	0	0	1	12
202.51220703125	0.099987214549401	414745	237	9	stim09_sf2_pattern1_cont1_shape2.png	1	65	0	382.260633771304	382.360620985854	0.099987214549401	stim09_sf2_pattern1_cont1_shape2.png	2	1	1	2	1	3	0	0	0	0	0	0	0	0	0	0	0	0	1	12
203.01220703125	0.0999939591674774	415769	238	8	stim08_sf2_pattern1_cont1_shape1.png	1	66	0	382.760618522601	382.860612481769	0.0999939591674774	stim08_sf2_pattern1_cont1_shape1.png	2	1	1	1	1	1	0	0	0	0	0	0	0	0	0	0	0	0	1	12
203.51220703125	0.10002973497285	416793	239	11	stim11_sf2_pattern1_cont2_shape2.png	1	67	0	383.260593596835	383.360623331808	0.10002973497285	stim11_sf2_pattern1_cont2_shape2.png	2	1	2	2	1	4	0	0	0	0	0	0	0	0	0	0	0	0	1	12
204.01220703125	0.100020351153944	417817	240	10	stim10_sf2_pattern1_cont2_shape1.png	1	68	0	383.760603567142	383.860623918295	0.100020351153944	stim10_sf2_pattern1_cont2_shape1.png	2	1	2	1	1	2	0	0	0	0	0	0	0	0	0	0	0	0	1	12
204.51220703125	0.0999866280599235	418841	241	1	stim01_sf1_pattern1_cont1_shape2.png	1	69	0	384.260610605004	384.360597233064	0.0999866280599235	stim01_sf1_pattern1_cont1_shape2.png	1	1	1	2	1	3	0	0	0	0	0	0	0	0	0	0	0	0	1	12
205.01220703125	0.099995425389352	419865	242	13	stim13_sf2_pattern2_cont1_shape2.png	1	70	0	384.760590664393	384.860586089782	0.099995425389352	stim13_sf2_pattern2_cont1_shape2.png	2	2	1	2	1	3	0	0	0	0	0	0	0	0	0	0	0	0	1	12
205.51220703125	0.0999936659227387	420889	243	12	stim12_sf2_pattern2_cont1_shape1.png	1	71	0	385.260580400842	385.360574066764	0.0999936659227387	stim12_sf2_pattern2_cont1_shape1.png	2	2	1	1	1	1	0	0	0	0	0	0	0	0	0	0	0	0	1	12
206.01220703125	0.0999977713418048	421913	244	15	stim15_sf2_pattern2_cont2_shape2.png	1	72	0	385.760564272407	385.860562043748	0.0999977713418048	stim15_sf2_pattern2_cont2_shape2.png	2	2	2	2	1	4	0	0	0	0	0	0	0	0	0	0	0	0	1	12
206.51220703125	0.0999963051217492	422937	245	12	stim12_sf2_pattern2_cont1_shape1.png	1	73	0	386.260555475077	386.360551780199	0.0999963051217492	stim12_sf2_pattern2_cont1_shape1.png	2	2	1	1	1	1	0	0	0	0	0	0	0	0	0	0	0	0	1	12
207.01220703125	0.099995425387533	423961	246	13	stim13_sf2_pattern2_cont1_shape2.png	1	74	0	386.760544918283	386.86054034367	0.099995425387533	stim13_sf2_pattern2_cont1_shape2.png	2	2	1	2	1	3	0	0	0	0	0	0	0	0	0	0	0	0	1	12
207.51220703125	0.0999968916094076	424985	247	8	stim08_sf2_pattern1_cont1_shape1.png	1	75	0	387.260532602022	387.360529493631	0.0999968916094076	stim08_sf2_pattern1_cont1_shape1.png	2	1	1	1	1	1	0	0	0	0	0	0	0	0	0	0	0	0	1	12
208.01220703125	0.099993372679819	426009	248	0	stim00_sf1_pattern1_cont1_shape1.png	1	76	0	387.760521165494	387.860514538173	0.099993372679819	stim00_sf1_pattern1_cont1_shape1.png	1	1	1	1	1	1	0	0	0	0	0	0	0	0	0	0	0	0	1	12
208.51220703125	0.100025629551965	427033	249	11	stim11_sf2_pattern1_cont2_shape2.png	1	77	0	388.260492427553	388.360518057105	0.100025629551965	stim11_sf2_pattern1_cont2_shape2.png	2	1	2	2	1	4	0	0	0	0	0	0	0	0	0	0	0	0	1	12
209.01220703125	0.0999819361513801	428057	250	3	stim03_sf1_pattern1_cont2_shape2.png	1	78	1	388.760508849235	388.860490785386	0.0999819361513801	stim03_sf1_pattern1_cont2_shape2.png	1	1	2	2	1	4	0	0	0	0	0	0	0	0	0	0	0	0	1	12
209.51220703125	0.0999898537484114	429081	251	3	stim03_sf1_pattern1_cont2_shape2.png	1	79	1	389.260481284269	389.360471138018	0.0999898537484114	stim03_sf1_pattern1_cont2_shape2.png	1	1	2	2	1	4	0	0	0	0	0	0	0	0	0	0	0	0	1	12
210.01220703125	0.0999951321446133	430105	252	2	stim02_sf1_pattern1_cont2_shape1.png	1	80	2	389.760471313964	389.860466446109	0.0999951321446133	stim02_sf1_pattern1_cont2_shape1.png	1	1	2	1	1	2	0	0	0	0	0	0	0	0	0	0	0	0	1	12
210.51220703125	0.100009501114982	431129	253	6	stim06_sf1_pattern2_cont2_shape1.png	1	81	2	390.26043759087	390.360447091985	0.100009501114982	stim06_sf1_pattern2_cont2_shape1.png	1	2	2	1	1	2	0	0	0	0	0	0	0	0	0	0	0	0	1	12
211.01220703125	0.099995425389352	432153	254	5	stim05_sf1_pattern2_cont1_shape2.png	1	82	0	390.760448147665	390.860443573054	0.099995425389352	stim05_sf1_pattern2_cont1_shape2.png	1	2	1	2	1	3	0	0	0	0	0	0	0	0	0	0	0	0	1	12
211.51220703125	0.10001008760446	433177	255	9	stim09_sf2_pattern1_cont1_shape2.png	1	83	0	391.260391258271	391.360401345875	0.10001008760446	stim09_sf2_pattern1_cont1_shape2.png	2	1	1	2	1	3	0	0	0	0	0	0	0	0	0	0	0	0	1	12
212.01220703125	0.10001302004639	434201	256	7	stim07_sf1_pattern2_cont2_shape2.png	1	84	0	391.760405920486	391.860418940532	0.10001302004639	stim07_sf1_pattern2_cont2_shape2.png	1	2	2	2	1	4	0	0	0	0	0	0	0	0	0	0	0	0	1	12
212.51220703125	0.100001290275031	435225	257	14	stim14_sf2_pattern2_cont2_shape1.png	1	85	0	392.260404161019	392.360405451294	0.100001290275031	stim14_sf2_pattern2_cont2_shape1.png	2	2	2	1	1	2	0	0	0	0	0	0	0	0	0	0	0	0	1	12
213.01220703125	0.100007741650188	436249	258	2	stim02_sf1_pattern1_cont2_shape1.png	1	86	0	392.760348444603	392.860356186253	0.100007741650188	stim02_sf1_pattern1_cont2_shape1.png	1	1	2	1	1	2	0	0	0	0	0	0	0	0	0	0	0	0	1	12
213.51220703125	0.100064044554529	437273	259	10	stim10_sf2_pattern1_cont2_shape1.png	1	87	0	393.260332316167	393.360396360722	0.100064044554529	stim10_sf2_pattern1_cont2_shape1.png	2	1	2	1	1	2	0	0	0	0	0	0	0	0	0	0	0	0	1	12
214.01220703125	0.100031494437644	438297	260	3	stim03_sf1_pattern1_cont2_shape2.png	1	88	0	393.760326451282	393.860357945719	0.100031494437644	stim03_sf1_pattern1_cont2_shape2.png	1	1	2	2	1	4	0	0	0	0	0	0	0	0	0	0	0	0	1	12
214.51220703125	0.0999713793553383	439321	261	6	stim06_sf1_pattern2_cont2_shape1.png	1	89	0	394.260327917504	394.360299296859	0.0999713793553383	stim06_sf1_pattern2_cont2_shape1.png	1	2	2	1	1	2	0	0	0	0	0	0	0	0	0	0	0	0	1	12
215.01171875	0.0999543711877777	440344	262	4	stim04_sf1_pattern2_cont1_shape1.png	1	90	0	394.760340233763	394.86029460495	0.0999543711877777	stim04_sf1_pattern2_cont1_shape1.png	1	2	1	1	1	1	0	0	0	0	0	0	0	0	0	0	0	0	1	12
215.51171875	0.100013020048209	441368	263	1	stim01_sf1_pattern1_cont1_shape2.png	1	91	0	395.260277479483	395.360290499531	0.100013020048209	stim01_sf1_pattern1_cont1_shape2.png	1	1	1	2	1	3	0	0	0	0	0	0	0	0	0	0	0	0	1	12
216.01171875	0.100031201192905	442392	264	7	stim07_sf1_pattern2_cont2_shape2.png	1	92	0	395.760285103835	395.860316305028	0.100031201192905	stim07_sf1_pattern2_cont2_shape2.png	1	2	2	2	1	4	0	0	0	0	0	0	0	0	0	0	0	0	1	12
216.51171875	0.0999875077941397	443416	265	9	stim09_sf2_pattern1_cont1_shape2.png	1	93	0	396.260263110513	396.360250618307	0.0999875077941397	stim09_sf2_pattern1_cont1_shape2.png	2	1	1	2	1	3	0	0	0	0	0	0	0	0	0	0	0	0	1	12
217.01171875	0.100013313291129	444440	266	3	stim03_sf1_pattern1_cont2_shape2.png	1	94	0	396.760267215934	396.860280529225	0.100013313291129	stim03_sf1_pattern1_cont2_shape2.png	1	1	2	2	1	4	0	0	0	0	0	0	0	0	0	0	0	0	1	12
217.51171875	0.0999505590116314	445464	267	4	stim04_sf1_pattern2_cont1_shape1.png	1	95	0	397.260280705172	397.360231264183	0.0999505590116314	stim04_sf1_pattern2_cont1_shape1.png	1	2	1	1	1	1	0	0	0	0	0	0	0	0	0	0	0	0	1	12
218.01171875	0.100059645888905	446488	268	15	stim15_sf2_pattern2_cont2_shape2.png	1	96	0	397.760215311693	397.860274957582	0.100059645888905	stim15_sf2_pattern2_cont2_shape2.png	2	2	2	2	1	4	0	0	0	0	0	0	0	0	0	0	0	0	1	12
218.51171875	0.0999590630963212	447512	269	2	stim02_sf1_pattern1_cont2_shape1.png	1	97	0	398.260244049634	398.36020311273	0.0999590630963212	stim02_sf1_pattern1_cont2_shape1.png	1	1	2	1	1	2	0	0	0	0	0	0	0	0	0	0	0	0	1	12
219.01171875	0.100013899780606	448536	270	11	stim11_sf2_pattern1_cont2_shape2.png	1	98	0	398.760177189934	398.860191089714	0.100013899780606	stim11_sf2_pattern1_cont2_shape2.png	2	1	2	2	1	4	0	0	0	0	0	0	0	0	0	0	0	0	1	12
219.51171875	0.100046449897491	449560	271	8	stim08_sf2_pattern1_cont1_shape1.png	1	99	0	399.260192145393	399.360238595291	0.100046449897491	stim08_sf2_pattern1_cont1_shape1.png	2	1	1	1	1	1	0	0	0	0	0	0	0	0	0	0	0	0	1	12
220.01171875	0.0999341373299103	450584	272	13	stim13_sf2_pattern2_cont1_shape2.png	1	100	0	399.760248155055	399.860182292385	0.0999341373299103	stim13_sf2_pattern2_cont1_shape2.png	2	2	1	2	1	3	0	0	0	0	0	0	0	0	0	0	0	0	1	12
220.51171875	0.0999012939682871	451608	273	0	stim00_sf1_pattern1_cont1_shape1.png	1	101	0	400.260228800931	400.360130094899	0.0999012939682871	stim00_sf1_pattern1_cont1_shape1.png	1	1	1	1	1	1	0	0	0	0	0	0	0	0	0	0	0	0	1	12
221.01171875	0.0999485063020984	452632	274	14	stim14_sf2_pattern2_cont2_shape1.png	1	102	0	400.760219417112	400.860167923414	0.0999485063020984	stim14_sf2_pattern2_cont2_shape1.png	2	2	2	1	1	2	0	0	0	0	0	0	0	0	0	0	0	0	1	12
221.51171875	0.100006275428314	453656	275	10	stim10_sf2_pattern1_cont2_shape1.png	1	103	0	401.260188626462	401.36019490189	0.100006275428314	stim10_sf2_pattern1_cont2_shape1.png	2	1	2	1	1	2	0	0	0	0	0	0	0	0	0	0	0	0	1	12
222.01171875	0.100062871577393	454680	276	6	stim06_sf1_pattern2_cont2_shape1.png	1	104	0	401.760130564091	401.860193435668	0.100062871577393	stim06_sf1_pattern2_cont2_shape1.png	1	2	2	1	1	2	0	0	0	0	0	0	0	0	0	0	0	0	1	12
222.51171875	0.100059645888905	455704	277	1	stim01_sf1_pattern1_cont1_shape2.png	1	105	0	402.260111503212	402.360171149101	0.100059645888905	stim01_sf1_pattern1_cont1_shape2.png	1	1	1	2	1	3	0	0	0	0	0	0	0	0	0	0	0	0	1	12
223.01171875	0.0999710861124186	456728	278	5	stim05_sf1_pattern2_cont1_shape2.png	1	106	0	402.760189506194	402.860160592307	0.0999710861124186	stim05_sf1_pattern2_cont1_shape2.png	1	2	1	2	1	3	0	0	0	0	0	0	0	0	0	0	0	0	1	12
223.51171875	0.0999998240531568	457752	279	12	stim12_sf2_pattern2_cont1_shape1.png	1	107	0	403.260128511381	403.360128335435	0.0999998240531568	stim12_sf2_pattern2_cont1_shape1.png	2	2	1	1	1	1	0	0	0	0	0	0	0	0	0	0	0	0	1	12
224.01171875	0.100006568671233	458776	280	10	stim10_sf2_pattern1_cont2_shape1.png	1	108	0	403.760127338404	403.860133907076	0.100006568671233	stim10_sf2_pattern1_cont2_shape1.png	2	1	2	1	1	2	0	0	0	0	0	0	0	0	0	0	0	0	1	12
224.51171875	0.0999766577533592	459800	281	13	stim13_sf2_pattern2_cont1_shape2.png	1	109	0	404.260091269356	404.360067927109	0.0999766577533592	stim13_sf2_pattern2_cont1_shape2.png	2	2	1	2	1	3	0	0	0	0	0	0	0	0	0	0	0	0	1	12
225.01171875	0.100074014861093	460824	282	3	stim03_sf1_pattern1_cont2_shape2.png	1	110	0	404.760047575955	404.860121590817	0.100074014861093	stim03_sf1_pattern1_cont2_shape2.png	1	1	2	2	1	4	0	0	0	0	0	0	0	0	0	0	0	0	1	12
225.51171875	0.100007155160711	461848	283	14	stim14_sf2_pattern2_cont2_shape1.png	1	111	0	405.26008745718	405.360094612341	0.100007155160711	stim14_sf2_pattern2_cont2_shape1.png	2	2	2	1	1	2	0	0	0	0	0	0	0	0	0	0	0	0	1	12
226.01171875	0.0999854550827877	462872	284	1	stim01_sf1_pattern1_cont1_shape2.png	1	112	0	405.760093322066	405.860078777148	0.0999854550827877	stim01_sf1_pattern1_cont1_shape2.png	1	1	1	2	1	3	0	0	0	0	0	0	0	0	0	0	0	0	1	12
226.51171875	0.100007741650188	463896	285	0	stim00_sf1_pattern1_cont1_shape1.png	1	113	0	406.260061651681	406.360069393331	0.100007741650188	stim00_sf1_pattern1_cont1_shape1.png	1	1	1	1	1	1	0	0	0	0	0	0	0	0	0	0	0	0	1	12
227.01171875	0.100014193025345	464920	286	15	stim15_sf2_pattern2_cont2_shape2.png	1	114	0	406.760050508397	406.860064701423	0.100014193025345	stim15_sf2_pattern2_cont2_shape2.png	2	2	2	2	1	4	0	0	0	0	0	0	0	0	0	0	0	0	1	12
227.51171875	0.100010380849199	465944	287	11	stim11_sf2_pattern1_cont2_shape2.png	1	115	0	407.260056959773	407.360067340622	0.100010380849199	stim11_sf2_pattern1_cont2_shape2.png	2	1	2	2	1	4	0	0	0	0	0	0	0	0	0	0	0	0	1	12
228.01171875	0.100003929474042	466968	288	5	stim05_sf1_pattern2_cont1_shape2.png	1	116	0	407.760013266372	407.860017195846	0.100003929474042	stim05_sf1_pattern2_cont1_shape2.png	1	2	1	2	1	3	0	0	0	0	0	0	0	0	0	0	0	0	1	12
228.51171875	0.0999795901971083	467992	289	4	stim04_sf1_pattern2_cont1_shape1.png	1	117	0	408.260042884047	408.360022474244	0.0999795901971083	stim04_sf1_pattern2_cont1_shape1.png	1	2	1	1	1	1	0	0	0	0	0	0	0	0	0	0	0	0	1	12
229.01171875	0.100005102449359	469016	290	9	stim09_sf2_pattern1_cont1_shape2.png	1	118	0	408.760026169122	408.860031271572	0.100005102449359	stim09_sf2_pattern1_cont1_shape2.png	2	1	1	2	1	3	0	0	0	0	0	0	0	0	0	0	0	0	1	12
229.51171875	0.100012140313993	470040	291	12	stim12_sf2_pattern2_cont1_shape1.png	1	119	0	409.259986874386	409.359999014699	0.100012140313993	stim12_sf2_pattern2_cont1_shape1.png	2	2	1	1	1	1	0	0	0	0	0	0	0	0	0	0	0	0	1	12
230.01171875	0.0999819361513801	471064	292	7	stim07_sf1_pattern2_cont2_shape2.png	1	120	0	409.759993912248	409.8599758484	0.0999819361513801	stim07_sf1_pattern2_cont2_shape2.png	1	2	2	2	1	4	0	0	0	0	0	0	0	0	0	0	0	0	1	12
230.51171875	0.0999625820295478	472088	293	6	stim06_sf1_pattern2_cont2_shape1.png	1	121	0	410.259976904079	410.359939486108	0.0999625820295478	stim06_sf1_pattern2_cont2_shape1.png	1	2	2	1	1	2	0	0	0	0	0	0	0	0	0	0	0	0	1	12
231.01171875	0.0999848685951292	473112	294	8	stim08_sf2_pattern1_cont1_shape1.png	1	122	0	410.759939955298	410.859924823893	0.0999848685951292	stim08_sf2_pattern1_cont1_shape1.png	2	1	1	1	1	1	0	0	0	0	0	0	0	0	0	0	0	0	1	12
231.51171875	0.100029441726292	474136	295	2	stim02_sf1_pattern1_cont2_shape1.png	1	123	0	411.259903299762	411.359932741489	0.100029441726292	stim02_sf1_pattern1_cont2_shape1.png	1	1	2	1	1	2	0	0	0	0	0	0	0	0	0	0	0	0	1	12
232.01171875	0.0999740185543487	475160	296	13	stim13_sf2_pattern2_cont1_shape2.png	1	124	0	411.759946699918	411.859920718472	0.0999740185543487	stim13_sf2_pattern2_cont1_shape2.png	2	2	1	2	1	3	0	0	0	0	0	0	0	0	0	0	0	0	1	12
232.51123046875	0.1000552472251	476183	297	7	stim07_sf1_pattern2_cont2_shape2.png	1	125	0	412.259851395522	412.359906642747	0.1000552472251	stim07_sf1_pattern2_cont2_shape2.png	1	2	2	2	1	4	0	0	0	0	0	0	0	0	0	0	0	0	1	12
233.01123046875	0.100031494437644	477207	298	12	stim12_sf2_pattern2_cont1_shape1.png	1	126	0	412.759862832048	412.859894326486	0.100031494437644	stim12_sf2_pattern2_cont1_shape1.png	2	2	1	1	1	1	0	0	0	0	0	0	0	0	0	0	0	0	1	12
233.51123046875	0.0999831091285159	478231	299	4	stim04_sf1_pattern2_cont1_shape1.png	1	127	0	413.259886291593	413.359869400721	0.0999831091285159	stim04_sf1_pattern2_cont1_shape1.png	1	2	1	1	1	1	0	0	0	0	0	0	0	0	0	0	0	0	1	12
234.01123046875	0.100019471421547	479255	300	15	stim15_sf2_pattern2_cont2_shape2.png	1	128	0	413.759890983501	413.859910454923	0.100019471421547	stim15_sf2_pattern2_cont2_shape2.png	2	2	2	2	1	4	0	0	0	0	0	0	0	0	0	0	0	0	1	12
234.51123046875	0.099993372679819	480279	301	0	stim00_sf1_pattern1_cont1_shape1.png	1	129	0	414.259895088921	414.3598884616	0.099993372679819	stim00_sf1_pattern1_cont1_shape1.png	1	1	1	1	1	1	0	0	0	0	0	0	0	0	0	0	0	0	1	12
235.01123046875	0.10000187676269	481303	302	2	stim02_sf1_pattern1_cont2_shape1.png	1	130	0	414.759885998348	414.859887875111	0.10000187676269	stim02_sf1_pattern1_cont2_shape1.png	1	1	2	1	1	2	0	0	0	0	0	0	0	0	0	0	0	0	1	12
235.51123046875	0.0999848685951292	482327	303	11	stim11_sf2_pattern1_cont2_shape2.png	1	131	0	415.259868403689	415.359853272284	0.0999848685951292	stim11_sf2_pattern1_cont2_shape2.png	2	1	2	2	1	4	0	0	0	0	0	0	0	0	0	0	0	0	1	12
236.01123046875	0.100042344476606	483351	304	5	stim05_sf1_pattern2_cont1_shape2.png	1	132	0	415.759810634563	415.85985297904	0.100042344476606	stim05_sf1_pattern2_cont1_shape2.png	1	2	1	2	1	3	0	0	0	0	0	0	0	0	0	0	0	0	1	12
236.51123046875	0.0999446941259521	484375	305	6	stim06_sf1_pattern2_cont2_shape1.png	1	133	0	416.259825590023	416.359770284149	0.0999446941259521	stim06_sf1_pattern2_cont2_shape1.png	1	2	2	1	1	2	0	0	0	0	0	0	0	0	0	0	0	0	1	12
237.01123046875	0.100004809206439	485399	306	1	stim01_sf1_pattern1_cont1_shape2.png	1	134	0	416.759826763	416.859831572207	0.100004809206439	stim01_sf1_pattern1_cont1_shape2.png	1	1	1	2	1	3	0	0	0	0	0	0	0	0	0	0	0	0	1	12
237.51123046875	0.0999822293961188	486423	307	9	stim09_sf2_pattern1_cont1_shape2.png	1	135	0	417.259817965671	417.359800195067	0.0999822293961188	stim09_sf2_pattern1_cont1_shape2.png	2	1	1	2	1	3	0	0	0	0	0	0	0	0	0	0	0	0	1	12
238.01123046875	0.0999977713436238	487447	308	14	stim14_sf2_pattern2_cont2_shape1.png	1	136	0	417.759806529144	417.859804300488	0.0999977713436238	stim14_sf2_pattern2_cont2_shape1.png	2	2	2	1	1	2	0	0	0	0	0	0	0	0	0	0	0	0	1	12
238.51123046875	0.100011553824515	488471	309	3	stim03_sf1_pattern1_cont2_shape2.png	1	137	0	418.259778670936	418.35979022476	0.100011553824515	stim03_sf1_pattern1_cont2_shape2.png	1	1	2	2	1	4	0	0	0	0	0	0	0	0	0	0	0	0	1	12
239.01123046875	0.099999530810237	489495	310	8	stim08_sf2_pattern1_cont1_shape1.png	1	138	0	418.759782776355	418.859782307165	0.099999530810237	stim08_sf2_pattern1_cont1_shape1.png	2	1	1	1	1	1	0	0	0	0	0	0	0	0	0	0	0	0	1	12
239.51123046875	0.0999792969523696	490519	311	10	stim10_sf2_pattern1_cont2_shape1.png	1	139	0	419.25977280605	419.359752103002	0.0999792969523696	stim10_sf2_pattern1_cont2_shape1.png	2	1	2	1	1	2	0	0	0	0	0	0	0	0	0	0	0	0	1	12
240.01123046875	0.0999910267237283	491543	312	6	stim06_sf1_pattern2_cont2_shape1.png	1	140	0	419.75970389364	419.859694920364	0.0999910267237283	stim06_sf1_pattern2_cont2_shape1.png	1	2	2	1	1	2	0	0	0	0	0	0	0	0	0	0	0	0	1	12
240.51123046875	0.0999836956179934	492567	313	1	stim01_sf1_pattern1_cont1_shape2.png	1	141	0	420.259740549176	420.359724244794	0.0999836956179934	stim01_sf1_pattern1_cont1_shape2.png	1	1	1	2	1	3	0	0	0	0	0	0	0	0	0	0	0	0	1	12
241.01123046875	0.10001302004639	493591	314	11	stim11_sf2_pattern1_cont2_shape2.png	1	142	0	420.759700961196	420.859713981243	0.10001302004639	stim11_sf2_pattern1_cont2_shape2.png	2	1	2	2	1	4	0	0	0	0	0	0	0	0	0	0	0	0	1	12
241.51123046875	0.10004146474239	494615	315	2	stim02_sf1_pattern1_cont2_shape1.png	1	143	0	421.259676328677	421.359717793419	0.10004146474239	stim02_sf1_pattern1_cont2_shape1.png	1	1	2	1	1	2	0	0	0	0	0	0	0	0	0	0	0	0	1	12
242.01123046875	0.100057886424111	495639	316	14	stim14_sf2_pattern2_cont2_shape1.png	1	144	0	421.75965140291	421.859709289334	0.100057886424111	stim14_sf2_pattern2_cont2_shape1.png	2	2	2	1	1	2	0	0	0	0	0	0	0	0	0	0	0	0	1	12
242.51123046875	0.100078706769636	496663	317	12	stim12_sf2_pattern2_cont1_shape1.png	1	145	0	422.259628529855	422.359707236625	0.100078706769636	stim12_sf2_pattern2_cont1_shape1.png	2	2	1	1	1	1	0	0	0	0	0	0	0	0	0	0	0	0	1	12
243.01123046875	0.100042051231867	497687	318	5	stim05_sf1_pattern2_cont1_shape2.png	1	146	0	422.759638793406	422.859680844638	0.100042051231867	stim05_sf1_pattern2_cont1_shape2.png	1	2	1	2	1	3	0	0	0	0	0	0	0	0	0	0	0	0	1	12
243.51123046875	0.0999411751945445	498711	319	13	stim13_sf2_pattern2_cont1_shape2.png	1	147	0	423.259670170546	423.359611345741	0.0999411751945445	stim13_sf2_pattern2_cont1_shape2.png	2	2	1	2	1	3	0	0	0	0	0	0	0	0	0	0	0	0	1	12
244.01123046875	0.0999312048879801	499735	320	3	stim03_sf1_pattern1_cont2_shape2.png	1	148	0	423.759671050278	423.859602255166	0.0999312048879801	stim03_sf1_pattern1_cont2_shape2.png	1	1	2	2	1	4	0	0	0	0	0	0	0	0	0	0	0	0	1	12
244.51123046875	0.099934430574649	500759	321	10	stim10_sf2_pattern1_cont2_shape1.png	1	149	0	424.259639966383	424.359574396958	0.099934430574649	stim10_sf2_pattern1_cont2_shape1.png	2	1	2	1	1	2	0	0	0	0	0	0	0	0	0	0	0	0	1	12
245.01123046875	0.100085744632452	501783	322	0	stim00_sf1_pattern1_cont1_shape1.png	1	150	0	424.759559324202	424.859645068835	0.100085744632452	stim00_sf1_pattern1_cont1_shape1.png	1	1	1	1	1	1	0	0	0	0	0	0	0	0	0	0	0	0	1	12
245.51123046875	0.100004515963519	502807	323	8	stim08_sf2_pattern1_cont1_shape1.png	1	151	0	425.259553752559	425.359558268523	0.100004515963519	stim08_sf2_pattern1_cont1_shape1.png	2	1	1	1	1	1	0	0	0	0	0	0	0	0	0	0	0	0	1	12
246.01123046875	0.099958183362105	503831	324	7	stim07_sf1_pattern2_cont2_shape2.png	1	152	0	425.759576332372	425.859534515734	0.099958183362105	stim07_sf1_pattern2_cont2_shape2.png	1	2	2	2	1	4	0	0	0	0	0	0	0	0	0	0	0	0	1	12
246.51123046875	0.100040585009992	504855	325	4	stim04_sf1_pattern2_cont1_shape1.png	1	153	0	426.259554339049	426.359594924059	0.100040585009992	stim04_sf1_pattern2_cont1_shape1.png	1	2	1	1	1	1	0	0	0	0	0	0	0	0	0	0	0	0	1	12
247.01123046875	0.0999614090505929	505879	326	9	stim09_sf2_pattern1_cont1_shape2.png	1	154	0	426.759561963399	426.85952337245	0.0999614090505929	stim09_sf2_pattern1_cont1_shape2.png	2	1	1	2	1	3	0	0	0	0	0	0	0	0	0	0	0	0	1	12
247.51123046875	0.0999332575975131	506903	327	15	stim15_sf2_pattern2_cont2_shape2.png	1	155	0	427.259549353896	427.359482611493	0.0999332575975131	stim15_sf2_pattern2_cont2_shape2.png	2	2	2	2	1	4	0	0	0	0	0	0	0	0	0	0	0	0	1	12
248.01123046875	0.0999394157297502	507927	328	4	stim04_sf1_pattern2_cont1_shape1.png	1	156	0	427.759549940383	427.859489356113	0.0999394157297502	stim04_sf1_pattern2_cont1_shape1.png	1	2	1	1	1	1	0	0	0	0	0	0	0	0	0	0	0	0	1	12
248.51123046875	0.0999388292402728	508951	329	15	stim15_sf2_pattern2_cont2_shape2.png	1	157	0	428.259546714697	428.359485543937	0.0999388292402728	stim15_sf2_pattern2_cont2_shape2.png	2	2	2	2	1	4	0	0	0	0	0	0	0	0	0	0	0	0	1	12
249.01123046875	0.0999637550048647	509975	330	7	stim07_sf1_pattern2_cont2_shape2.png	1	158	0	428.759520615955	428.85948437096	0.0999637550048647	stim07_sf1_pattern2_cont2_shape2.png	1	2	2	2	1	4	0	0	0	0	0	0	0	0	0	0	0	0	1	12
249.51123046875	0.0999684469134081	510999	331	13	stim13_sf2_pattern2_cont1_shape2.png	1	159	0	429.259544075498	429.359512522411	0.0999684469134081	stim13_sf2_pattern2_cont1_shape2.png	2	2	1	2	1	3	0	0	0	0	0	0	0	0	0	0	0	0	1	12
250.0107421875	0.0999476265678823	512022	332	14	stim14_sf2_pattern2_cont2_shape1.png	1	160	0	429.75954348901	429.859491115578	0.0999476265678823	stim14_sf2_pattern2_cont2_shape1.png	2	2	2	1	1	2	0	0	0	0	0	0	0	0	0	0	0	0	1	12
250.5107421875	0.100022990352954	513046	333	11	stim11_sf2_pattern1_cont2_shape2.png	1	161	0	430.259502141564	430.359525131917	0.100022990352954	stim11_sf2_pattern1_cont2_shape2.png	2	1	2	2	1	4	0	0	0	0	0	0	0	0	0	0	0	0	1	12
251.0107421875	0.100008034893108	514070	334	10	stim10_sf2_pattern1_cont2_shape1.png	1	162	0	430.759499795609	430.859507830502	0.100008034893108	stim10_sf2_pattern1_cont2_shape1.png	2	1	2	1	1	2	0	0	0	0	0	0	0	0	0	0	0	0	1	12
251.5107421875	0.100010087602641	515094	335	5	stim05_sf1_pattern2_cont1_shape2.png	1	163	0	431.259479561753	431.359489649356	0.100010087602641	stim05_sf1_pattern2_cont1_shape2.png	1	2	1	2	1	3	0	0	0	0	0	0	0	0	0	0	0	0	1	12
252.0107421875	0.0999860415722651	516118	336	8	stim08_sf2_pattern1_cont1_shape1.png	1	164	0	431.759488652326	431.859474693898	0.0999860415722651	stim08_sf2_pattern1_cont1_shape1.png	2	1	1	1	1	1	0	0	0	0	0	0	0	0	0	0	0	0	1	12
252.5107421875	0.100017125465456	517142	337	1	stim01_sf1_pattern1_cont1_shape2.png	1	165	0	432.259444665682	432.359461791148	0.100017125465456	stim01_sf1_pattern1_cont1_shape2.png	1	1	1	2	1	3	0	0	0	0	0	0	0	0	0	0	0	0	1	12
253.0107421875	0.0999948388998746	518166	338	9	stim09_sf2_pattern1_cont1_shape2.png	1	166	0	432.759453756255	432.859448595154	0.0999948388998746	stim09_sf2_pattern1_cont1_shape2.png	2	1	1	2	1	3	0	0	0	0	0	0	0	0	0	0	0	0	1	12
253.5107421875	0.100012433556913	519190	339	6	stim06_sf1_pattern2_cont2_shape1.png	1	167	0	433.259429123735	433.359441557292	0.100012433556913	stim06_sf1_pattern2_cont2_shape1.png	1	2	2	1	1	2	0	0	0	0	0	0	0	0	0	0	0	0	1	12
254.0107421875	0.0999986510760209	520214	340	0	stim00_sf1_pattern1_cont1_shape1.png	1	168	0	433.759429710222	433.859428361298	0.0999986510760209	stim00_sf1_pattern1_cont1_shape1.png	1	1	1	1	1	1	0	0	0	0	0	0	0	0	0	0	0	0	1	12
254.5107421875	0.099967567181011	521238	341	3	stim03_sf1_pattern1_cont2_shape2.png	1	169	0	434.259425898046	434.359393465227	0.099967567181011	stim03_sf1_pattern1_cont2_shape2.png	1	1	2	2	1	4	0	0	0	0	0	0	0	0	0	0	0	0	1	12
255.0107421875	0.0999980645865435	522262	342	12	stim12_sf2_pattern2_cont1_shape1.png	1	170	0	434.759404784458	434.859402849044	0.0999980645865435	stim12_sf2_pattern2_cont1_shape1.png	2	2	1	1	1	1	0	0	0	0	0	0	0	0	0	0	0	0	1	12
255.5107421875	0.0999863348151848	523286	343	2	stim02_sf1_pattern1_cont2_shape1.png	1	171	0	435.259386310066	435.359372644882	0.0999863348151848	stim02_sf1_pattern1_cont2_shape1.png	1	1	2	1	1	2	0	0	0	0	0	0	0	0	0	0	0	0	1	12
279.27685546875	0.0999927861903416	571959	344	4	stim04_sf1_pattern2_cont1_shape1.png	2	0	0	459.025497005097	459.125489791288	0.0999927861903416	stim04_sf1_pattern2_cont1_shape1.png	1	2	1	1	1	1	0	0	0	0	0	0	0	0	0	0	0	0	1	12
279.77685546875	0.100000703785554	572983	345	10	stim10_sf2_pattern1_cont2_shape1.png	2	1	0	459.525465627958	459.625466331743	0.100000703785554	stim10_sf2_pattern1_cont2_shape1.png	2	1	2	1	1	2	0	0	0	0	0	0	0	0	0	0	0	0	1	12
280.27685546875	0.0999968916112266	574007	346	13	stim13_sf2_pattern2_cont1_shape2.png	2	2	0	460.025467387422	460.125464279034	0.0999968916112266	stim13_sf2_pattern2_cont1_shape2.png	2	2	1	2	1	3	0	0	0	0	0	0	0	0	0	0	0	0	1	12
280.77685546875	0.099997478098885	575031	347	0	stim00_sf1_pattern1_cont1_shape1.png	2	3	0	460.525456830628	460.625454308727	0.099997478098885	stim00_sf1_pattern1_cont1_shape1.png	1	1	1	1	1	1	0	0	0	0	0	0	0	0	0	0	0	0	1	12
281.27685546875	0.0999924929456029	576055	348	7	stim07_sf1_pattern2_cont2_shape2.png	2	4	0	461.025449206276	461.125441699221	0.0999924929456029	stim07_sf1_pattern2_cont2_shape2.png	1	2	2	2	1	4	0	0	0	0	0	0	0	0	0	0	0	0	1	12
281.77685546875	0.100012726801651	577079	349	12	stim12_sf2_pattern2_cont1_shape1.png	2	5	0	461.52541870887	461.625431435672	0.100012726801651	stim12_sf2_pattern2_cont1_shape1.png	2	2	1	1	1	1	0	0	0	0	0	0	0	0	0	0	0	0	1	12
282.27685546875	0.0999995308084181	578103	350	2	stim02_sf1_pattern1_cont2_shape1.png	2	6	0	462.025421054825	462.125420585633	0.0999995308084181	stim02_sf1_pattern1_cont2_shape1.png	1	1	2	1	1	2	0	0	0	0	0	0	0	0	0	0	0	0	1	12
282.77685546875	0.0999781239752338	579127	351	11	stim11_sf2_pattern1_cont2_shape2.png	2	7	0	462.525410791273	462.625388915249	0.0999781239752338	stim11_sf2_pattern1_cont2_shape2.png	2	1	2	2	1	4	0	0	0	0	0	0	0	0	0	0	0	0	1	12
283.27685546875	0.0999960118770105	580151	352	6	stim06_sf1_pattern2_cont2_shape1.png	2	8	0	463.025399061502	463.125395073379	0.0999960118770105	stim06_sf1_pattern2_cont2_shape1.png	1	2	2	1	1	2	0	0	0	0	0	0	0	0	0	0	0	0	1	12
283.77685546875	0.099995425387533	581175	353	14	stim14_sf2_pattern2_cont2_shape1.png	2	9	0	463.525387331731	463.625382757118	0.099995425387533	stim14_sf2_pattern2_cont2_shape1.png	2	2	2	1	1	2	0	0	0	0	0	0	0	0	0	0	0	0	1	12
284.27685546875	0.0999080385900015	582199	354	1	stim01_sf1_pattern1_cont1_shape2.png	2	10	0	464.025458590093	464.125366628683	0.0999080385900015	stim01_sf1_pattern1_cont1_shape2.png	1	1	1	2	1	3	0	0	0	0	0	0	0	0	0	0	0	0	1	12
284.77685546875	0.100004809206439	583223	355	5	stim05_sf1_pattern2_cont1_shape2.png	2	11	0	464.5253580073	464.625362816507	0.100004809206439	stim05_sf1_pattern2_cont1_shape2.png	1	2	1	2	1	3	0	0	0	0	0	0	0	0	0	0	0	0	1	12
285.27685546875	0.0999936659227387	584247	356	8	stim08_sf2_pattern1_cont1_shape1.png	2	12	0	465.025328096383	465.125321762305	0.0999936659227387	stim08_sf2_pattern1_cont1_shape1.png	2	1	1	1	1	1	0	0	0	0	0	0	0	0	0	0	0	0	1	12
285.77685546875	0.0999825226390385	585271	357	3	stim03_sf1_pattern1_cont2_shape2.png	2	13	0	465.525314607145	465.625297129784	0.0999825226390385	stim03_sf1_pattern1_cont2_shape2.png	1	1	2	2	1	4	0	0	0	0	0	0	0	0	0	0	0	0	1	12
286.27685546875	0.0999945456551359	586295	358	9	stim09_sf2_pattern1_cont1_shape2.png	2	14	0	466.025284402982	466.125278948637	0.0999945456551359	stim09_sf2_pattern1_cont1_shape2.png	2	1	1	2	1	3	0	0	0	0	0	0	0	0	0	0	0	0	1	12
286.77685546875	0.0999963051217492	587319	359	15	stim15_sf2_pattern2_cont2_shape2.png	2	15	1	466.525271500233	466.625267805355	0.0999963051217492	stim15_sf2_pattern2_cont2_shape2.png	2	2	2	2	1	4	0	0	0	0	0	0	0	0	0	0	0	0	1	12
287.2763671875	0.099995425389352	588342	360	15	stim15_sf2_pattern2_cont2_shape2.png	2	16	1	467.025260063705	467.125255489094	0.099995425389352	stim15_sf2_pattern2_cont2_shape2.png	2	2	2	2	1	4	0	0	0	0	0	0	0	0	0	0	0	0	1	12
287.7763671875	0.0999634617601259	589366	361	0	stim00_sf1_pattern1_cont1_shape1.png	2	17	2	467.525248333934	467.625211795694	0.0999634617601259	stim00_sf1_pattern1_cont1_shape1.png	1	1	1	1	1	1	0	0	0	0	0	0	0	0	0	0	0	0	1	12
288.2763671875	0.100032374170041	590390	362	12	stim12_sf2_pattern2_cont1_shape1.png	2	18	2	468.025207572977	468.125239947147	0.100032374170041	stim12_sf2_pattern2_cont1_shape1.png	2	2	1	1	1	1	0	0	0	0	0	0	0	0	0	0	0	0	1	12
288.7763671875	0.0999951321446133	591414	363	15	stim15_sf2_pattern2_cont2_shape2.png	2	19	0	468.525227220343	468.625222352488	0.0999951321446133	stim15_sf2_pattern2_cont2_shape2.png	2	2	2	2	1	4	0	0	0	0	0	0	0	0	0	0	0	0	1	12
289.2763671875	0.100009794359721	592438	364	7	stim07_sf1_pattern2_cont2_shape2.png	2	20	0	469.025249506911	469.12525930127	0.100009794359721	stim07_sf1_pattern2_cont2_shape2.png	1	2	2	2	1	4	0	0	0	0	0	0	0	0	0	0	0	0	1	12
289.7763671875	0.100013899780606	593462	365	15	stim15_sf2_pattern2_cont2_shape2.png	2	21	0	469.525221062213	469.625234961994	0.100013899780606	stim15_sf2_pattern2_cont2_shape2.png	2	2	2	2	1	4	0	0	0	0	0	0	0	0	0	0	0	0	1	12
290.2763671875	0.099995425389352	594486	366	5	stim05_sf1_pattern2_cont1_shape2.png	2	22	0	470.025230739275	470.125226164664	0.099995425389352	stim05_sf1_pattern2_cont1_shape2.png	1	2	1	2	1	3	0	0	0	0	0	0	0	0	0	0	0	0	1	12
290.7763671875	0.100013899780606	595510	367	11	stim11_sf2_pattern1_cont2_shape2.png	2	23	0	470.525221355458	470.625235255238	0.100013899780606	stim11_sf2_pattern1_cont2_shape2.png	2	1	2	2	1	4	0	0	0	0	0	0	0	0	0	0	0	0	1	12
291.2763671875	0.100003342984564	596534	368	0	stim00_sf1_pattern1_cont1_shape1.png	2	24	0	471.025211678396	471.12521502138	0.100003342984564	stim00_sf1_pattern1_cont1_shape1.png	1	1	1	1	1	1	0	0	0	0	0	0	0	0	0	0	0	0	1	12
291.7763671875	0.0999910267237283	597558	369	4	stim04_sf1_pattern2_cont1_shape1.png	2	25	0	471.525198482403	471.625189509126	0.0999910267237283	stim04_sf1_pattern2_cont1_shape1.png	1	2	1	1	1	1	0	0	0	0	0	0	0	0	0	0	0	0	1	12
292.2763671875	0.100020057909205	598582	370	3	stim03_sf1_pattern1_cont2_shape2.png	2	26	0	472.025188218853	472.125208276762	0.100020057909205	stim03_sf1_pattern1_cont2_shape2.png	1	1	2	2	1	4	0	0	0	0	0	0	0	0	0	0	0	0	1	12
292.7763671875	0.100061405357337	599606	371	8	stim08_sf2_pattern1_cont1_shape1.png	2	27	0	472.525120772663	472.625182178021	0.100061405357337	stim08_sf2_pattern1_cont1_shape1.png	2	1	1	1	1	1	0	0	0	0	0	0	0	0	0	0	0	0	1	12
293.2763671875	0.0999496792792343	600630	372	10	stim10_sf2_pattern1_cont2_shape1.png	2	28	0	473.025173263393	473.125122942673	0.0999496792792343	stim10_sf2_pattern1_cont2_shape1.png	2	1	2	1	1	2	0	0	0	0	0	0	0	0	0	0	0	0	1	12
293.7763671875	0.0999702063782024	601654	373	9	stim09_sf2_pattern1_cont1_shape2.png	2	29	0	473.525154495759	473.625124702137	0.0999702063782024	stim09_sf2_pattern1_cont1_shape2.png	2	1	1	2	1	3	0	0	0	0	0	0	0	0	0	0	0	0	1	12
294.2763671875	0.100128265055901	602678	374	12	stim12_sf2_pattern2_cont1_shape1.png	2	30	0	474.0251369011	474.125265166156	0.100128265055901	stim12_sf2_pattern2_cont1_shape1.png	2	2	1	1	1	1	0	0	0	0	0	0	0	0	0	0	0	0	1	12
294.7763671875	0.0999578901173663	603702	375	6	stim06_sf1_pattern2_cont2_shape1.png	2	31	0	474.525125464574	474.625083354691	0.0999578901173663	stim06_sf1_pattern2_cont2_shape1.png	1	2	2	1	1	2	0	0	0	0	0	0	0	0	0	0	0	0	1	12
295.2763671875	0.099995425389352	604726	376	13	stim13_sf2_pattern2_cont1_shape2.png	2	32	0	475.025115494267	475.125110919656	0.099995425389352	stim13_sf2_pattern2_cont1_shape2.png	2	2	1	2	1	3	0	0	0	0	0	0	0	0	0	0	0	0	1	12
295.7763671875	0.0999751915333036	605750	377	2	stim02_sf1_pattern1_cont2_shape1.png	2	33	0	475.525106696938	475.625081888471	0.0999751915333036	stim02_sf1_pattern1_cont2_shape1.png	1	1	2	1	1	2	0	0	0	0	0	0	0	0	0	0	0	0	1	12
296.2763671875	0.0999798834418471	606774	378	1	stim01_sf1_pattern1_cont1_shape2.png	2	34	0	476.02509115499	476.125071038432	0.0999798834418471	stim01_sf1_pattern1_cont1_shape2.png	1	1	1	2	1	3	0	0	0	0	0	0	0	0	0	0	0	0	1	12
296.78466796875	0.0999640482496034	607815	379	14	stim14_sf2_pattern2_cont2_shape1.png	2	35	0	476.533410495684	476.633374543933	0.0999640482496034	stim14_sf2_pattern2_cont2_shape1.png	2	2	2	1	1	2	0	0	0	0	0	0	0	0	0	0	0	0	1	12
297.28466796875	0.0999957186340907	608839	380	0	stim00_sf1_pattern1_cont1_shape1.png	2	36	0	477.033401111865	477.133396830499	0.0999957186340907	stim00_sf1_pattern1_cont1_shape1.png	1	1	1	1	1	1	0	0	0	0	0	0	0	0	0	0	0	0	1	12
297.78466796875	0.100010674093937	609863	381	1	stim01_sf1_pattern1_cont1_shape2.png	2	37	0	477.533386742894	477.633397416988	0.100010674093937	stim01_sf1_pattern1_cont1_shape2.png	1	1	1	2	1	3	0	0	0	0	0	0	0	0	0	0	0	0	1	12
298.28466796875	0.0999951321446133	610887	382	7	stim07_sf1_pattern2_cont2_shape2.png	2	38	0	478.033377652322	478.133372784467	0.0999951321446133	stim07_sf1_pattern2_cont2_shape2.png	1	2	2	2	1	4	0	0	0	0	0	0	0	0	0	0	0	0	1	12
298.78466796875	0.0999825226408575	611911	383	11	stim11_sf2_pattern1_cont2_shape2.png	2	39	0	478.533367388771	478.633349911412	0.0999825226408575	stim11_sf2_pattern1_cont2_shape2.png	2	1	2	2	1	4	0	0	0	0	0	0	0	0	0	0	0	0	1	12
299.28466796875	0.100001876764509	612935	384	3	stim03_sf1_pattern1_cont2_shape2.png	2	40	0	479.033322815638	479.133324692402	0.100001876764509	stim03_sf1_pattern1_cont2_shape2.png	1	1	2	2	1	4	0	0	0	0	0	0	0	0	0	0	0	0	1	12
299.78466796875	0.0999898537465924	613959	385	5	stim05_sf1_pattern2_cont1_shape2.png	2	41	0	479.533346275182	479.633336128929	0.0999898537465924	stim05_sf1_pattern2_cont1_shape2.png	1	2	1	2	1	3	0	0	0	0	0	0	0	0	0	0	0	0	1	12
300.28466796875	0.099995425389352	614983	386	13	stim13_sf2_pattern2_cont1_shape2.png	2	42	0	480.033331612967	480.133327038357	0.099995425389352	stim13_sf2_pattern2_cont1_shape2.png	2	2	1	2	1	3	0	0	0	0	0	0	0	0	0	0	0	0	1	12
300.78466796875	0.0999889740141953	616007	387	6	stim06_sf1_pattern2_cont2_shape1.png	2	43	0	480.533323695372	480.633312669386	0.0999889740141953	stim06_sf1_pattern2_cont2_shape1.png	1	2	2	1	1	2	0	0	0	0	0	0	0	0	0	0	0	0	1	12
301.28466796875	0.0999986510760209	617031	388	2	stim02_sf1_pattern1_cont2_shape1.png	2	44	0	481.033306393958	481.133305045034	0.0999986510760209	stim02_sf1_pattern1_cont2_shape1.png	1	1	2	1	1	2	0	0	0	0	0	0	0	0	0	0	0	0	1	12
301.78466796875	0.1000045159617	618055	389	14	stim14_sf2_pattern2_cont2_shape1.png	2	45	0	481.53327853575	481.633283051711	0.1000045159617	stim14_sf2_pattern2_cont2_shape1.png	2	2	2	1	1	2	0	0	0	0	0	0	0	0	0	0	0	0	1	12
302.28466796875	0.0999983578312822	619079	390	8	stim08_sf2_pattern1_cont1_shape1.png	2	46	0	482.033281468193	482.133279826025	0.0999983578312822	stim08_sf2_pattern1_cont1_shape1.png	2	1	1	1	1	1	0	0	0	0	0	0	0	0	0	0	0	0	1	12
302.78466796875	0.0999857483275264	620103	391	9	stim09_sf2_pattern1_cont1_shape2.png	2	47	0	482.53326152758	482.633247275908	0.0999857483275264	stim09_sf2_pattern1_cont1_shape2.png	2	1	1	2	1	3	0	0	0	0	0	0	0	0	0	0	0	0	1	12
303.28466796875	0.100000703787373	621127	392	10	stim10_sf2_pattern1_cont2_shape1.png	2	48	0	483.033257715404	483.133258419191	0.100000703787373	stim10_sf2_pattern1_cont2_shape1.png	2	1	2	1	1	2	0	0	0	0	0	0	0	0	0	0	0	0	1	12
303.78466796875	0.0999854550827877	622151	393	15	stim15_sf2_pattern2_cont2_shape2.png	2	49	0	483.533230443685	483.633215898768	0.0999854550827877	stim15_sf2_pattern2_cont2_shape2.png	2	2	2	2	1	4	0	0	0	0	0	0	0	0	0	0	0	0	1	12
304.28466796875	0.100008621382585	623175	394	12	stim12_sf2_pattern2_cont1_shape1.png	2	50	0	484.033226631509	484.133235252892	0.100008621382585	stim12_sf2_pattern2_cont1_shape1.png	2	2	1	1	1	1	0	0	0	0	0	0	0	0	0	0	0	0	1	12
304.78466796875	0.100009207870244	624199	395	4	stim04_sf1_pattern2_cont1_shape1.png	2	51	0	484.533212262539	484.633221470409	0.100009207870244	stim04_sf1_pattern2_cont1_shape1.png	1	2	1	1	1	1	0	0	0	0	0	0	0	0	0	0	0	0	1	12
305.28466796875	0.100000117297895	625223	396	2	stim02_sf1_pattern1_cont2_shape1.png	2	52	0	485.033190855705	485.133190973003	0.100000117297895	stim02_sf1_pattern1_cont2_shape1.png	1	1	2	1	1	2	0	0	0	0	0	0	0	0	0	0	0	0	1	12
305.7841796875	0.0999939591674774	626246	397	9	stim09_sf2_pattern1_cont1_shape2.png	2	53	0	485.533199946278	485.633193905445	0.0999939591674774	stim09_sf2_pattern1_cont1_shape2.png	2	1	1	2	1	3	0	0	0	0	0	0	0	0	0	0	0	0	1	12
306.2841796875	0.0999951321446133	627270	398	12	stim12_sf2_pattern2_cont1_shape1.png	2	54	0	486.033152733946	486.13314786609	0.0999951321446133	stim12_sf2_pattern2_cont1_shape1.png	2	2	1	1	1	1	0	0	0	0	0	0	0	0	0	0	0	0	1	12
306.7841796875	0.0999924929456029	628294	399	14	stim14_sf2_pattern2_cont2_shape1.png	2	55	0	486.533183524598	486.633176017544	0.0999924929456029	stim14_sf2_pattern2_cont2_shape1.png	2	2	2	1	1	2	0	0	0	0	0	0	0	0	0	0	0	0	1	12
307.2841796875	0.100005982183575	629318	400	1	stim01_sf1_pattern1_cont1_shape2.png	2	56	0	487.033126048716	487.1331320309	0.100005982183575	stim01_sf1_pattern1_cont1_shape2.png	1	1	1	2	1	3	0	0	0	0	0	0	0	0	0	0	0	0	1	12
307.7841796875	0.1000045159617	630342	401	6	stim06_sf1_pattern2_cont2_shape1.png	2	57	0	487.533131327113	487.633135843074	0.1000045159617	stim06_sf1_pattern2_cont2_shape1.png	1	2	2	1	1	2	0	0	0	0	0	0	0	0	0	0	0	0	1	12
308.2841796875	0.100049968827079	631366	402	15	stim15_sf2_pattern2_cont2_shape2.png	2	58	0	488.033089686423	488.13313965525	0.100049968827079	stim15_sf2_pattern2_cont2_shape2.png	2	2	2	2	1	4	0	0	0	0	0	0	0	0	0	0	0	0	1	12
308.7841796875	0.0999590630963212	632390	403	8	stim08_sf2_pattern1_cont1_shape1.png	2	59	0	488.533126341959	488.633085405056	0.0999590630963212	stim08_sf2_pattern1_cont1_shape1.png	2	1	1	1	1	1	0	0	0	0	0	0	0	0	0	0	0	0	1	12
309.2841796875	0.100022697108216	633414	404	7	stim07_sf1_pattern2_cont2_shape2.png	2	60	0	489.033098190508	489.133120887616	0.100022697108216	stim07_sf1_pattern2_cont2_shape2.png	1	2	2	2	1	4	0	0	0	0	0	0	0	0	0	0	0	0	1	12
309.7841796875	0.100035306611971	634438	405	3	stim03_sf1_pattern1_cont2_shape2.png	2	61	0	489.533050978176	489.633086284788	0.100035306611971	stim03_sf1_pattern1_cont2_shape2.png	1	1	2	2	1	4	0	0	0	0	0	0	0	0	0	0	0	0	1	12
310.2841796875	0.0999880942817981	635462	406	0	stim00_sf1_pattern1_cont1_shape1.png	2	62	0	490.033080595849	490.133068690131	0.0999880942817981	stim00_sf1_pattern1_cont1_shape1.png	1	1	1	1	1	1	0	0	0	0	0	0	0	0	0	0	0	0	1	12
310.7841796875	0.0999866280617425	636486	407	5	stim05_sf1_pattern2_cont1_shape2.png	2	63	0	490.53307179852	490.633058426582	0.0999866280617425	stim05_sf1_pattern2_cont1_shape2.png	1	2	1	2	1	3	0	0	0	0	0	0	0	0	0	0	0	0	1	12
311.2841796875	0.0999379495060566	637510	408	11	stim11_sf2_pattern1_cont2_shape2.png	2	64	0	491.033077663407	491.133015612913	0.0999379495060566	stim11_sf2_pattern1_cont2_shape2.png	2	1	2	2	1	4	0	0	0	0	0	0	0	0	0	0	0	0	1	12
311.7841796875	0.0999514387440286	638534	409	10	stim10_sf2_pattern1_cont2_shape1.png	2	65	0	491.533067986345	491.63301942509	0.0999514387440286	stim10_sf2_pattern1_cont2_shape1.png	2	1	2	1	1	2	0	0	0	0	0	0	0	0	0	0	0	0	1	12
312.2841796875	0.0999880942817981	639558	410	13	stim13_sf2_pattern2_cont1_shape2.png	2	66	0	492.033048925465	492.133037019747	0.0999880942817981	stim13_sf2_pattern2_cont1_shape2.png	2	2	1	2	1	3	0	0	0	0	0	0	0	0	0	0	0	0	1	12
312.7841796875	0.0999391224850115	640582	411	4	stim04_sf1_pattern2_cont1_shape1.png	2	67	0	492.533038075426	492.632977197911	0.0999391224850115	stim04_sf1_pattern2_cont1_shape1.png	1	2	1	1	1	1	0	0	0	0	0	0	0	0	0	0	0	0	1	12
313.2841796875	0.0999710861124186	641606	412	3	stim03_sf1_pattern1_cont2_shape2.png	2	68	0	493.033040714625	493.133011800737	0.0999710861124186	stim03_sf1_pattern1_cont2_shape2.png	1	1	2	2	1	4	0	0	0	0	0	0	0	0	0	0	0	0	1	12
313.7841796875	0.100028561995714	642630	413	10	stim10_sf2_pattern1_cont2_shape1.png	2	69	0	493.532951275114	493.63297983711	0.100028561995714	stim10_sf2_pattern1_cont2_shape1.png	2	1	2	1	1	2	0	0	0	0	0	0	0	0	0	0	0	0	1	12
314.2841796875	0.100033840391916	643654	414	6	stim06_sf1_pattern2_cont2_shape1.png	2	70	0	494.032959779199	494.132993619591	0.100033840391916	stim06_sf1_pattern2_cont2_shape1.png	1	2	2	1	1	2	0	0	0	0	0	0	0	0	0	0	0	0	1	12
314.7841796875	0.0999502657687117	644678	415	11	stim11_sf2_pattern1_cont2_shape2.png	2	71	0	494.533010510462	494.632960776231	0.0999502657687117	stim11_sf2_pattern1_cont2_shape2.png	2	1	2	2	1	4	0	0	0	0	0	0	0	0	0	0	0	0	1	12
315.2841796875	0.0999983578312822	645702	416	13	stim13_sf2_pattern2_cont1_shape2.png	2	72	0	495.032973854926	495.132972212758	0.0999983578312822	stim13_sf2_pattern2_cont1_shape2.png	2	2	1	2	1	3	0	0	0	0	0	0	0	0	0	0	0	0	1	12
315.7841796875	0.0999951321446133	646726	417	9	stim09_sf2_pattern1_cont1_shape2.png	2	73	0	495.532964764352	495.632959896497	0.0999951321446133	stim09_sf2_pattern1_cont1_shape2.png	2	1	1	2	1	3	0	0	0	0	0	0	0	0	0	0	0	0	1	12
316.2841796875	0.100033253902438	647750	418	2	stim02_sf1_pattern1_cont2_shape1.png	2	74	0	496.03291813851	496.132951392412	0.100033253902438	stim02_sf1_pattern1_cont2_shape1.png	1	1	2	1	1	2	0	0	0	0	0	0	0	0	0	0	0	0	1	12
316.7841796875	0.0999998240531568	648774	419	1	stim01_sf1_pattern1_cont1_shape2.png	2	75	0	496.53294071832	496.632940542373	0.0999998240531568	stim01_sf1_pattern1_cont1_shape2.png	1	1	1	2	1	3	0	0	0	0	0	0	0	0	0	0	0	0	1	12
317.2841796875	0.0999845753503905	649798	420	0	stim00_sf1_pattern1_cont1_shape1.png	2	76	0	497.032922243929	497.132906819279	0.0999845753503905	stim00_sf1_pattern1_cont1_shape1.png	1	1	1	1	1	1	0	0	0	0	0	0	0	0	0	0	0	0	1	12
317.7841796875	0.099997478098885	650822	421	7	stim07_sf1_pattern2_cont2_shape2.png	2	77	0	497.53291755202	497.632915030119	0.099997478098885	stim07_sf1_pattern2_cont2_shape2.png	1	2	2	2	1	4	0	0	0	0	0	0	0	0	0	0	0	0	1	12
318.2841796875	0.0999951321446133	651846	422	12	stim12_sf2_pattern2_cont1_shape1.png	2	78	0	498.032905822249	498.132900954393	0.0999951321446133	stim12_sf2_pattern2_cont1_shape1.png	2	2	1	1	1	1	0	0	0	0	0	0	0	0	0	0	0	0	1	12
318.7841796875	0.0999836956179934	652870	423	15	stim15_sf2_pattern2_cont2_shape2.png	2	79	0	498.532904356027	498.632888051645	0.0999836956179934	stim15_sf2_pattern2_cont2_shape2.png	2	2	2	2	1	4	0	0	0	0	0	0	0	0	0	0	0	0	1	12
319.2841796875	0.0999989443207596	653894	424	5	stim05_sf1_pattern2_cont1_shape2.png	2	80	0	499.032886468125	499.132885412446	0.0999989443207596	stim05_sf1_pattern2_cont1_shape2.png	1	2	1	2	1	3	0	0	0	0	0	0	0	0	0	0	0	0	1	12
319.7841796875	0.0999748982867459	654918	425	8	stim08_sf2_pattern1_cont1_shape1.png	2	81	0	499.532875031598	499.632849929885	0.0999748982867459	stim08_sf2_pattern1_cont1_shape1.png	2	1	1	1	1	1	0	0	0	0	0	0	0	0	0	0	0	0	1	12
320.2841796875	0.0999766577533592	655942	426	14	stim14_sf2_pattern2_cont2_shape1.png	2	82	0	500.03288470866	500.132861366414	0.0999766577533592	stim14_sf2_pattern2_cont2_shape1.png	2	2	2	1	1	2	0	0	0	0	0	0	0	0	0	0	0	0	1	12
320.7841796875	0.0999702063782024	656966	427	4	stim04_sf1_pattern2_cont1_shape1.png	2	83	0	500.532850692322	500.6328208987	0.0999702063782024	stim04_sf1_pattern2_cont1_shape1.png	1	2	1	1	1	1	0	0	0	0	0	0	0	0	0	0	0	0	1	12
321.2841796875	0.0999831091285159	657990	428	0	stim00_sf1_pattern1_cont1_shape1.png	2	84	0	501.032841601747	501.132824710876	0.0999831091285159	stim00_sf1_pattern1_cont1_shape1.png	1	1	1	1	1	1	0	0	0	0	0	0	0	0	0	0	0	0	1	12
321.7841796875	0.0999751915314846	659014	429	1	stim01_sf1_pattern1_cont1_shape2.png	2	85	0	501.532802307012	501.632777498544	0.0999751915314846	stim01_sf1_pattern1_cont1_shape2.png	1	1	1	2	1	3	0	0	0	0	0	0	0	0	0	0	0	0	1	12
322.2841796875	0.0999144899633393	660038	430	14	stim14_sf2_pattern2_cont2_shape1.png	2	86	0	502.032830751708	502.132745241672	0.0999144899633393	stim14_sf2_pattern2_cont2_shape1.png	2	2	2	1	1	2	0	0	0	0	0	0	0	0	0	0	0	0	1	12
322.7841796875	0.0999285656907887	661062	431	4	stim04_sf1_pattern2_cont1_shape1.png	2	87	0	502.532806412431	502.632734978122	0.0999285656907887	stim04_sf1_pattern2_cont1_shape1.png	1	2	1	1	1	1	0	0	0	0	0	0	0	0	0	0	0	0	1	12
323.28369140625	0.0999971848541463	662085	432	8	stim08_sf2_pattern1_cont1_shape1.png	2	88	0	503.032763598765	503.132760783619	0.0999971848541463	stim08_sf2_pattern1_cont1_shape1.png	2	1	1	1	1	1	0	0	0	0	0	0	0	0	0	0	0	0	1	12
323.78369140625	0.0999965983664879	663109	433	10	stim10_sf2_pattern1_cont2_shape1.png	2	89	0	503.532753041971	503.632749640337	0.0999965983664879	stim10_sf2_pattern1_cont2_shape1.png	2	1	2	1	1	2	0	0	0	0	0	0	0	0	0	0	0	0	1	12
324.28369140625	0.100022990352954	664133	434	5	stim05_sf1_pattern2_cont1_shape2.png	2	90	0	504.032702897195	504.132725887548	0.100022990352954	stim05_sf1_pattern2_cont1_shape2.png	1	2	1	2	1	3	0	0	0	0	0	0	0	0	0	0	0	0	1	12
324.78369140625	0.0999408819498058	665157	435	7	stim07_sf1_pattern2_cont2_shape2.png	2	91	0	504.532714333724	504.632655215673	0.0999408819498058	stim07_sf1_pattern2_cont2_shape2.png	1	2	2	2	1	4	0	0	0	0	0	0	0	0	0	0	0	0	1	12
325.28369140625	0.0999763645086205	666181	436	13	stim13_sf2_pattern2_cont1_shape2.png	2	92	0	505.032705829639	505.132682194147	0.0999763645086205	stim13_sf2_pattern2_cont1_shape2.png	2	2	1	2	1	3	0	0	0	0	0	0	0	0	0	0	0	0	1	12
325.78369140625	0.100013313291129	667205	437	6	stim06_sf1_pattern2_cont2_shape1.png	2	93	0	505.532712574257	505.632725887548	0.100013313291129	stim06_sf1_pattern2_cont2_shape1.png	1	2	2	1	1	2	0	0	0	0	0	0	0	0	0	0	0	0	1	12
326.28369140625	0.100014193023526	668229	438	15	stim15_sf2_pattern2_cont2_shape2.png	2	94	0	506.032667414636	506.13268160766	0.100014193023526	stim15_sf2_pattern2_cont2_shape2.png	2	2	2	2	1	4	0	0	0	0	0	0	0	0	0	0	0	0	1	12
326.78369140625	0.0999927861903416	669253	439	12	stim12_sf2_pattern2_cont1_shape1.png	2	95	0	506.532712867502	506.632705653692	0.0999927861903416	stim12_sf2_pattern2_cont1_shape1.png	2	2	1	1	1	1	0	0	0	0	0	0	0	0	0	0	0	0	1	12
327.28369140625	0.0999854550827877	670277	440	9	stim09_sf2_pattern1_cont1_shape2.png	2	96	0	507.032714920211	507.132700375294	0.0999854550827877	stim09_sf2_pattern1_cont1_shape2.png	2	1	1	2	1	3	0	0	0	0	0	0	0	0	0	0	0	0	1	12
327.78369140625	0.100005688938836	671301	441	3	stim03_sf1_pattern1_cont2_shape2.png	2	97	0	507.532672986277	507.632678675216	0.100005688938836	stim03_sf1_pattern1_cont2_shape2.png	1	1	2	2	1	4	0	0	0	0	0	0	0	0	0	0	0	0	1	12
328.28369140625	0.100010380849199	672325	442	2	stim02_sf1_pattern1_cont2_shape1.png	2	98	0	508.032675332232	508.132685713081	0.100010380849199	stim02_sf1_pattern1_cont2_shape1.png	1	1	2	1	1	2	0	0	0	0	0	0	0	0	0	0	0	0	1	12
328.78369140625	0.100003049739826	673349	443	11	stim11_sf2_pattern1_cont2_shape2.png	2	99	0	508.532619029327	508.632622079067	0.100003049739826	stim11_sf2_pattern1_cont2_shape2.png	2	1	2	2	1	4	0	0	0	0	0	0	0	0	0	0	0	0	1	12
329.28369140625	0.0999960118788294	674373	444	13	stim13_sf2_pattern2_cont1_shape2.png	2	100	0	509.032647180778	509.132643192657	0.0999960118788294	stim13_sf2_pattern2_cont1_shape2.png	2	2	1	2	1	3	0	0	0	0	0	0	0	0	0	0	0	0	1	12
329.78369140625	0.0999825226390385	675397	445	9	stim09_sf2_pattern1_cont1_shape2.png	2	101	0	509.53264102265	509.632623545289	0.0999825226390385	stim09_sf2_pattern1_cont1_shape2.png	2	1	1	2	1	3	0	0	0	0	0	0	0	0	0	0	0	0	1	12
330.28369140625	0.0999968916112266	676421	446	14	stim14_sf2_pattern2_cont2_shape1.png	2	102	0	510.032622255014	510.132619146625	0.0999968916112266	stim14_sf2_pattern2_cont2_shape1.png	2	2	2	1	1	2	0	0	0	0	0	0	0	0	0	0	0	0	1	12
330.78369140625	0.100009794359721	677445	447	1	stim01_sf1_pattern1_cont1_shape2.png	2	103	0	510.532613164441	510.632622958801	0.100009794359721	stim01_sf1_pattern1_cont1_shape2.png	1	1	1	2	1	3	0	0	0	0	0	0	0	0	0	0	0	0	1	12
331.28369140625	0.0999980645865435	678469	448	11	stim11_sf2_pattern1_cont2_shape2.png	2	104	0	511.032594983295	511.132593047882	0.0999980645865435	stim11_sf2_pattern1_cont2_shape2.png	2	1	2	2	1	4	0	0	0	0	0	0	0	0	0	0	0	0	1	12
331.78369140625	0.0999526117211644	679493	449	5	stim05_sf1_pattern2_cont1_shape2.png	2	105	0	511.532597622494	511.632550234215	0.0999526117211644	stim05_sf1_pattern2_cont1_shape2.png	1	2	1	2	1	3	0	0	0	0	0	0	0	0	0	0	0	0	1	12
