onset	duration	onsetsample	eventnumber	stimnumber	stimname	blocknumber	trialnumber	istarget	time_stimon	time_stimoff	stimdur	stimfilename	spatial_freq	pattern	contrast	shape	is_fast_stream	category	ppt_1_response	ppt_1_keypressed	ppt_1_rt	ppt_1_correct	ppt_2_response	ppt_2_keypressed	ppt_2_rt	ppt_2_correct	button1	button2	button3	button4	task_part_number	subjectnr
163.72412109375	0.0999848686042242	335307	0	11	stim11_sf2_pattern1_cont2_shape2.png	0	0	0	358.654943834903	358.754928703507	0.0999848686042242	stim11_sf2_pattern1_cont2_shape2.png	2	1	2	2	1	1	0	0	0	0	0	0	0	0	0	0	0	0	1	21
164.232421875	0.0999672739417292	336348	1	1	stim01_sf1_pattern1_cont1_shape2.png	0	1	0	359.163293673017	359.263260946958	0.0999672739417292	stim01_sf1_pattern1_cont1_shape2.png	1	1	1	2	1	1	0	0	0	0	0	0	0	0	0	0	0	0	1	21
164.74072265625	0.104625166364713	337389	2	14	stim14_sf2_pattern2_cont2_shape1.png	0	2	0	359.683641308249	359.788266474614	0.104625166364713	stim14_sf2_pattern2_cont2_shape1.png	2	2	2	1	1	4	0	0	0	0	0	0	0	0	0	0	0	0	1	21
165.25732421875	0.100043517450104	338447	3	3	stim03_sf1_pattern1_cont2_shape2.png	0	3	0	360.188204776001	360.288248293451	0.100043517450104	stim03_sf1_pattern1_cont2_shape2.png	1	1	2	2	1	1	0	0	0	0	0	0	0	0	0	0	0	0	1	21
165.75732421875	0.10001829842804	339471	4	12	stim12_sf2_pattern2_cont1_shape1.png	0	4	0	360.688218265248	360.788236563676	0.10001829842804	stim12_sf2_pattern2_cont1_shape1.png	2	2	1	1	1	4	0	0	0	0	0	0	0	0	0	0	0	0	1	21
166.25732421875	0.100010967318667	340495	5	10	stim10_sf2_pattern1_cont2_shape1.png	0	5	0	361.188209467917	361.288220435235	0.100010967318667	stim10_sf2_pattern1_cont2_shape1.png	2	1	2	1	1	3	0	0	0	0	0	0	0	0	0	0	0	0	1	21
166.75732421875	0.0999737253296189	341519	6	15	stim15_sf2_pattern2_cont2_shape2.png	0	6	0	361.688220317941	361.788194043271	0.0999737253296189	stim15_sf2_pattern2_cont2_shape2.png	2	2	2	2	1	2	0	0	0	0	0	0	0	0	0	0	0	0	1	21
167.25732421875	0.0999212345632259	342543	7	7	stim07_sf1_pattern2_cont2_shape2.png	0	7	0	362.188231461245	362.288152695808	0.0999212345632259	stim07_sf1_pattern2_cont2_shape2.png	1	2	2	2	1	2	0	0	0	0	0	0	0	0	0	0	0	0	1	21
167.75732421875	0.0999646347190719	343567	8	5	stim05_sf1_pattern2_cont1_shape2.png	0	8	0	362.68819685842	362.788161493139	0.0999646347190719	stim05_sf1_pattern2_cont1_shape2.png	1	2	1	2	1	2	0	0	0	0	0	0	0	0	0	0	0	0	1	21
168.25732421875	0.0999640482477844	344591	9	13	stim13_sf2_pattern2_cont1_shape2.png	0	9	0	363.188186594867	363.288150643115	0.0999640482477844	stim13_sf2_pattern2_cont1_shape2.png	2	2	1	2	1	2	0	0	0	0	0	0	0	0	0	0	0	0	1	21
168.75732421875	0.100004222709686	345615	10	2	stim02_sf1_pattern1_cont2_shape1.png	0	10	0	363.688144074433	363.788148297142	0.100004222709686	stim02_sf1_pattern1_cont2_shape1.png	1	1	2	1	1	3	0	0	0	0	0	0	0	0	0	0	0	0	1	21
169.25732421875	0.0999666874413379	346639	11	6	stim06_sf1_pattern2_cont2_shape1.png	0	11	0	364.188159909623	364.288126597065	0.0999666874413379	stim06_sf1_pattern2_cont2_shape1.png	1	2	2	1	1	4	0	0	0	0	0	0	0	0	0	0	0	0	1	21
169.75732421875	0.0999939591565635	347663	12	0	stim00_sf1_pattern1_cont1_shape1.png	0	12	0	364.688120028412	364.788113987568	0.0999939591565635	stim00_sf1_pattern1_cont1_shape1.png	1	1	1	1	1	3	0	0	0	0	0	0	0	0	0	0	0	0	1	21
170.25732421875	0.100038239062997	348687	13	4	stim04_sf1_pattern2_cont1_shape1.png	0	13	0	365.188091583695	365.288129822758	0.100038239062997	stim04_sf1_pattern2_cont1_shape1.png	1	2	1	1	1	4	0	0	0	0	0	0	0	0	0	0	0	0	1	21
170.75732421875	0.0999869212973863	349711	14	8	stim08_sf2_pattern1_cont1_shape1.png	0	14	0	365.688130291965	365.788117213262	0.0999869212973863	stim08_sf2_pattern1_cont1_shape1.png	2	1	1	1	1	3	0	0	0	0	0	0	0	0	0	0	0	0	1	21
171.25732421875	0.100000117294258	350735	15	9	stim09_sf2_pattern1_cont1_shape2.png	0	15	0	366.188118268939	366.288118386234	0.100000117294258	stim09_sf2_pattern1_cont1_shape2.png	2	1	1	2	1	1	0	0	0	0	0	0	0	0	0	0	0	0	1	21
171.75732421875	0.100001583516132	351759	16	8	stim08_sf2_pattern1_cont1_shape1.png	0	16	0	366.688096862112	366.788098445628	0.100001583516132	stim08_sf2_pattern1_cont1_shape1.png	2	1	1	1	1	3	0	0	0	0	0	0	0	0	0	0	0	0	1	21
172.25732421875	0.0999998240440618	352783	17	3	stim03_sf1_pattern1_cont2_shape2.png	0	17	0	367.188089824253	367.288089648297	0.0999998240440618	stim03_sf1_pattern1_cont2_shape2.png	1	1	2	2	1	1	0	0	0	0	0	0	0	0	0	0	0	0	1	21
172.75732421875	0.100003342988202	353807	18	4	stim04_sf1_pattern2_cont1_shape1.png	0	18	0	367.68807193634	367.788075279328	0.100003342988202	stim04_sf1_pattern2_cont1_shape1.png	1	2	1	1	1	4	0	0	0	0	0	0	0	0	0	0	0	0	1	21
173.25732421875	0.099975778022781	354831	19	11	stim11_sf2_pattern1_cont2_shape2.png	0	19	0	368.188080147171	368.288055925193	0.099975778022781	stim11_sf2_pattern1_cont2_shape2.png	2	1	2	2	1	1	0	0	0	0	0	0	0	0	0	0	0	0	1	21
173.75732421875	0.0999983578221872	355855	20	1	stim01_sf1_pattern1_cont1_shape2.png	0	20	0	368.688058740343	368.788057098165	0.0999983578221872	stim01_sf1_pattern1_cont1_shape2.png	1	1	1	2	1	1	0	0	0	0	0	0	0	0	0	0	0	0	1	21
174.25732421875	0.100029148510657	356879	21	13	stim13_sf2_pattern2_cont1_shape2.png	0	21	0	369.188004490134	369.288033638644	0.100029148510657	stim13_sf2_pattern2_cont1_shape2.png	2	2	1	2	1	2	0	0	0	0	0	0	0	0	0	0	0	0	1	21
174.75732421875	0.0999992375727743	357903	22	14	stim14_sf2_pattern2_cont2_shape1.png	0	22	0	369.688020618574	369.788019856147	0.0999992375727743	stim14_sf2_pattern2_cont2_shape1.png	2	2	2	1	1	4	0	0	0	0	0	0	0	0	0	0	0	0	1	21
175.25732421875	0.0999916132132057	358927	23	9	stim09_sf2_pattern1_cont1_shape2.png	0	23	0	370.188015046937	370.28800666015	0.0999916132132057	stim09_sf2_pattern1_cont1_shape2.png	2	1	1	2	1	1	0	0	0	0	0	0	0	0	0	0	0	0	1	21
175.75732421875	0.0999983578221872	359951	24	6	stim06_sf1_pattern2_cont2_shape1.png	0	24	0	370.687999211747	370.787997569569	0.0999983578221872	stim06_sf1_pattern2_cont2_shape1.png	1	2	2	1	1	4	0	0	0	0	0	0	0	0	0	0	0	0	1	21
176.25732421875	0.0999945456569549	360975	25	12	stim12_sf2_pattern2_cont1_shape1.png	0	25	0	371.187989534694	371.287984080351	0.0999945456569549	stim12_sf2_pattern2_cont1_shape1.png	2	2	1	1	1	4	0	0	0	0	0	0	0	0	0	0	0	0	1	21
176.7568359375	0.0999960118788294	361998	26	7	stim07_sf1_pattern2_cont2_shape2.png	0	26	0	371.687975165725	371.787971177604	0.0999960118788294	stim07_sf1_pattern2_cont2_shape2.png	1	2	2	2	1	2	0	0	0	0	0	0	0	0	0	0	0	0	1	21
177.2568359375	0.0999467468354851	363022	27	5	stim05_sf1_pattern2_cont1_shape2.png	0	27	0	372.187964315672	372.287911062507	0.0999467468354851	stim05_sf1_pattern2_cont1_shape2.png	1	2	1	2	1	2	0	0	0	0	0	0	0	0	0	0	0	0	1	21
177.7568359375	0.099997478100704	364046	28	0	stim00_sf1_pattern1_cont1_shape1.png	0	28	0	372.687952585897	372.787950063997	0.099997478100704	stim00_sf1_pattern1_cont1_shape1.png	1	1	1	1	1	3	0	0	0	0	0	0	0	0	0	0	0	0	1	21
178.2568359375	0.100001290265936	365070	29	10	stim10_sf2_pattern1_cont2_shape1.png	0	29	0	373.187942029122	373.287943319388	0.100001290265936	stim10_sf2_pattern1_cont2_shape1.png	2	1	2	1	1	3	0	0	0	0	0	0	0	0	0	0	0	0	1	21
178.7568359375	0.0999971848505083	366094	30	15	stim15_sf2_pattern2_cont2_shape2.png	0	30	0	373.687925900682	373.787923085532	0.0999971848505083	stim15_sf2_pattern2_cont2_shape2.png	2	2	2	2	1	2	0	0	0	0	0	0	0	0	0	0	0	0	1	21
179.2568359375	0.0999965983792208	367118	31	2	stim02_sf1_pattern1_cont2_shape1.png	0	31	0	374.187912411435	374.287909009814	0.0999965983792208	stim02_sf1_pattern1_cont2_shape1.png	1	1	2	1	1	3	0	0	0	0	0	0	0	0	0	0	0	0	1	21
179.7568359375	0.0999910267128143	368142	32	3	stim03_sf1_pattern1_cont2_shape2.png	0	32	0	374.687904493854	374.787895520567	0.0999910267128143	stim03_sf1_pattern1_cont2_shape2.png	1	1	2	2	1	1	0	0	0	0	0	0	0	0	0	0	0	0	1	21
180.2568359375	0.100010087597184	369166	33	0	stim00_sf1_pattern1_cont1_shape1.png	0	33	0	375.187888365414	375.287898453011	0.100010087597184	stim00_sf1_pattern1_cont1_shape1.png	1	1	1	1	1	3	0	0	0	0	0	0	0	0	0	0	0	0	1	21
180.7568359375	0.0999957186577376	370190	34	8	stim08_sf2_pattern1_cont1_shape1.png	0	34	0	375.687880154554	375.787875873211	0.0999957186577376	stim08_sf2_pattern1_cont1_shape1.png	2	1	1	1	1	3	0	0	0	0	0	0	0	0	0	0	0	0	1	21
181.2568359375	0.0999957186286338	371214	35	9	stim09_sf2_pattern1_cont1_shape2.png	0	35	0	376.187869011279	376.287864729908	0.0999957186286338	stim09_sf2_pattern1_cont1_shape2.png	2	1	1	2	1	1	0	0	0	0	0	0	0	0	0	0	0	0	1	21
181.7568359375	0.0999740185507108	372238	36	12	stim12_sf2_pattern2_cont1_shape1.png	0	36	0	376.687860213948	376.787834232498	0.0999740185507108	stim12_sf2_pattern2_cont1_shape1.png	2	2	1	1	1	4	0	0	0	0	0	0	0	0	0	0	0	0	1	21
182.2568359375	0.100015952484682	373262	37	5	stim05_sf1_pattern2_cont1_shape2.png	0	37	0	377.187821798958	377.287837751443	0.100015952484682	stim05_sf1_pattern2_cont1_shape2.png	1	2	1	2	1	2	0	0	0	0	0	0	0	0	0	0	0	0	1	21
182.7568359375	0.100011260597967	374286	38	10	stim10_sf2_pattern1_cont2_shape1.png	0	38	0	377.687813588098	377.787824848696	0.100011260597967	stim10_sf2_pattern1_cont2_shape1.png	2	1	2	1	1	3	0	0	0	0	0	0	0	0	0	0	0	0	1	21
183.2568359375	0.0999743118009064	375310	39	4	stim04_sf1_pattern2_cont1_shape1.png	0	39	0	378.18782297193	378.28779728373	0.0999743118009064	stim04_sf1_pattern2_cont1_shape1.png	1	2	1	1	1	4	0	0	0	0	0	0	0	0	0	0	0	0	1	21
183.7568359375	0.0999710861360654	376334	40	7	stim07_sf1_pattern2_cont2_shape2.png	0	40	0	378.687810655654	378.78778174179	0.0999710861360654	stim07_sf1_pattern2_cont2_shape2.png	1	2	2	2	1	2	0	0	0	0	0	0	0	0	0	0	0	0	1	21
184.2568359375	0.100008914625505	377358	41	14	stim14_sf2_pattern2_cont2_shape1.png	0	41	0	379.187781624496	379.287790539121	0.100008914625505	stim14_sf2_pattern2_cont2_shape1.png	2	2	2	1	1	4	0	0	0	0	0	0	0	0	0	0	0	0	1	21
184.7568359375	0.0999971848505083	378382	42	2	stim02_sf1_pattern1_cont2_shape1.png	0	42	0	379.687760510889	379.78775769574	0.0999971848505083	stim02_sf1_pattern1_cont2_shape1.png	1	1	2	1	1	3	0	0	0	0	0	0	0	0	0	0	0	0	1	21
185.2568359375	0.100018298457144	379406	43	11	stim11_sf2_pattern1_cont2_shape2.png	0	43	0	380.187748487864	380.287766786321	0.100018298457144	stim11_sf2_pattern1_cont2_shape2.png	2	1	2	2	1	1	0	0	0	0	0	0	0	0	0	0	0	0	1	21
185.7568359375	0.100072255387204	380430	44	1	stim01_sf1_pattern1_cont1_shape2.png	0	44	0	380.687688079546	380.787760334933	0.100072255387204	stim01_sf1_pattern1_cont1_shape2.png	1	1	1	2	1	1	0	0	0	0	0	0	0	0	0	0	0	0	1	21
186.2568359375	0.0999977713508997	381454	45	13	stim13_sf2_pattern2_cont1_shape2.png	0	45	0	381.18775376628	381.287751537631	0.0999977713508997	stim13_sf2_pattern2_cont1_shape2.png	2	2	1	2	1	2	0	0	0	0	0	0	0	0	0	0	0	0	1	21
186.7568359375	0.0999895604909398	382478	46	6	stim06_sf1_pattern2_cont2_shape1.png	0	46	0	381.687747608143	381.787737168634	0.0999895604909398	stim06_sf1_pattern2_cont2_shape1.png	1	2	2	1	1	4	0	0	0	0	0	0	0	0	0	0	0	0	1	21
187.2568359375	0.0999927861848846	383502	47	10	stim10_sf2_pattern1_cont2_shape1.png	0	47	1	382.187734998646	382.287727784831	0.0999927861848846	stim10_sf2_pattern1_cont2_shape1.png	2	1	2	1	1	3	0	0	0	0	0	0	0	0	0	0	0	0	1	21
187.7568359375	0.0999872145766858	384526	48	10	stim10_sf2_pattern1_cont2_shape1.png	0	48	1	382.687722389121	382.787709603697	0.0999872145766858	stim10_sf2_pattern1_cont2_shape1.png	2	1	2	1	1	3	0	0	0	0	0	0	0	0	0	0	0	0	1	21
188.2568359375	0.0999921996844932	385550	49	0	stim00_sf1_pattern1_cont1_shape1.png	0	49	2	383.187704794487	383.287696994172	0.0999921996844932	stim00_sf1_pattern1_cont1_shape1.png	1	1	1	1	1	3	0	0	0	0	0	0	0	0	0	0	0	0	1	21
188.7568359375	0.100000117294258	386574	50	12	stim12_sf2_pattern2_cont1_shape1.png	0	50	2	383.687689839018	383.787689956313	0.100000117294258	stim12_sf2_pattern2_cont1_shape1.png	2	2	1	1	1	4	0	0	0	0	0	0	0	0	0	0	0	0	1	21
189.2568359375	0.0999954253784381	387598	51	15	stim15_sf2_pattern2_cont2_shape2.png	0	51	0	384.187678109243	384.287673534622	0.0999954253784381	stim15_sf2_pattern2_cont2_shape2.png	2	2	2	2	1	2	0	0	0	0	0	0	0	0	0	0	0	0	1	21
189.7568359375	0.0999927861848846	388622	52	13	stim13_sf2_pattern2_cont1_shape2.png	0	52	0	384.68766784569	384.787660631875	0.0999927861848846	stim13_sf2_pattern2_cont1_shape2.png	2	2	1	2	1	2	0	0	0	0	0	0	0	0	0	0	0	0	1	21
190.2568359375	0.099993372685276	389646	53	1	stim01_sf1_pattern1_cont1_shape2.png	0	53	0	385.187657288887	385.287650661572	0.099993372685276	stim01_sf1_pattern1_cont1_shape2.png	1	1	1	2	1	1	0	0	0	0	0	0	0	0	0	0	0	0	1	21
190.7568359375	0.099993372685276	390670	54	2	stim02_sf1_pattern1_cont2_shape1.png	0	54	0	385.687644972641	385.787638345326	0.099993372685276	stim02_sf1_pattern1_cont2_shape1.png	1	1	2	1	1	3	0	0	0	0	0	0	0	0	0	0	0	0	1	21
191.2568359375	0.0999546644161455	391694	55	15	stim15_sf2_pattern2_cont2_shape2.png	0	55	0	386.187629723951	386.287584388367	0.0999546644161455	stim15_sf2_pattern2_cont2_shape2.png	2	2	2	2	1	2	0	0	0	0	0	0	0	0	0	0	0	0	1	21
191.7568359375	0.0999957186286338	392718	56	9	stim09_sf2_pattern1_cont1_shape2.png	0	56	0	386.687619460397	386.787615179026	0.0999957186286338	stim09_sf2_pattern1_cont1_shape2.png	2	1	1	2	1	1	0	0	0	0	0	0	0	0	0	0	0	0	1	21
192.2568359375	0.100041758007137	393742	57	11	stim11_sf2_pattern1_cont2_shape2.png	0	57	0	387.18755905205	387.287600810057	0.100041758007137	stim11_sf2_pattern1_cont2_shape2.png	2	1	2	2	1	1	0	0	0	0	0	0	0	0	0	0	0	0	1	21
192.7568359375	0.099994252435863	394766	58	12	stim12_sf2_pattern2_cont1_shape1.png	0	58	0	387.687596587319	387.787590839755	0.099994252435863	stim12_sf2_pattern2_cont1_shape1.png	2	2	1	1	1	4	0	0	0	0	0	0	0	0	0	0	0	0	1	21
193.2568359375	0.100015952484682	395790	59	0	stim00_sf1_pattern1_cont1_shape1.png	0	59	0	388.187564037216	388.287579989701	0.100015952484682	stim00_sf1_pattern1_cont1_shape1.png	1	1	1	1	1	3	0	0	0	0	0	0	0	0	0	0	0	0	1	21
193.75634765625	0.100000410544453	396813	60	14	stim14_sf2_pattern2_cont2_shape1.png	0	60	0	388.687571954797	388.787572365341	0.100000410544453	stim14_sf2_pattern2_cont2_shape1.png	2	2	2	1	1	4	0	0	0	0	0	0	0	0	0	0	0	0	1	21
194.25634765625	0.0999954254075419	397837	61	6	stim06_sf1_pattern2_cont2_shape1.png	0	61	0	389.187560518272	389.28755594368	0.0999954254075419	stim06_sf1_pattern2_cont2_shape1.png	1	2	2	1	1	4	0	0	0	0	0	0	0	0	0	0	0	0	1	21
194.75634765625	0.0999927861848846	398861	62	3	stim03_sf1_pattern1_cont2_shape2.png	0	62	0	389.687548202026	389.787540988211	0.0999927861848846	stim03_sf1_pattern1_cont2_shape2.png	1	1	2	2	1	1	0	0	0	0	0	0	0	0	0	0	0	0	1	21
195.25634765625	0.100014193012612	399885	63	4	stim04_sf1_pattern2_cont1_shape1.png	0	63	0	390.187518291117	390.28753248413	0.100014193012612	stim04_sf1_pattern2_cont1_shape1.png	1	2	1	1	1	4	0	0	0	0	0	0	0	0	0	0	0	0	1	21
195.75634765625	0.0999936659354717	400909	64	7	stim07_sf1_pattern2_cont2_shape2.png	0	64	0	390.687524449226	390.787518115161	0.0999936659354717	stim07_sf1_pattern2_cont2_shape2.png	1	2	2	2	1	2	0	0	0	0	0	0	0	0	0	0	0	0	1	21
196.25634765625	0.0999954254075419	401933	65	10	stim10_sf2_pattern1_cont2_shape1.png	0	65	0	391.187514478923	391.28750990433	0.0999954254075419	stim10_sf2_pattern1_cont2_shape1.png	2	1	2	1	1	3	0	0	0	0	0	0	0	0	0	0	0	0	1	21
196.75634765625	0.100011260597967	402957	66	8	stim08_sf2_pattern1_cont1_shape1.png	0	66	0	391.687493951817	391.787505212415	0.100011260597967	stim08_sf2_pattern1_cont1_shape1.png	2	1	1	1	1	3	0	0	0	0	0	0	0	0	0	0	0	0	1	21
197.25634765625	0.0999963051290251	403981	67	5	stim05_sf1_pattern2_cont1_shape2.png	0	67	0	392.187465213879	392.287461519009	0.0999963051290251	stim05_sf1_pattern2_cont1_shape2.png	1	2	1	2	1	2	0	0	0	0	0	0	0	0	0	0	0	0	1	21
197.75634765625	0.0999719658575486	405005	68	11	stim11_sf2_pattern1_cont2_shape2.png	0	68	0	392.687482515292	392.787454481149	0.0999719658575486	stim11_sf2_pattern1_cont2_shape2.png	2	1	2	2	1	1	0	0	0	0	0	0	0	0	0	0	0	0	1	21
198.25634765625	0.099981056409888	406029	69	13	stim13_sf2_pattern2_cont1_shape2.png	0	69	0	393.18744263408	393.28742369049	0.099981056409888	stim13_sf2_pattern2_cont1_shape2.png	2	2	1	2	1	2	0	0	0	0	0	0	0	0	0	0	0	0	1	21
198.75634765625	0.100006275431952	407053	70	8	stim08_sf2_pattern1_cont1_shape1.png	0	70	0	393.687418294809	393.787424570241	0.100006275431952	stim08_sf2_pattern1_cont1_shape1.png	2	1	1	1	1	3	0	0	0	0	0	0	0	0	0	0	0	0	1	21
199.25634765625	0.0999608225538395	408077	71	0	stim00_sf1_pattern1_cont1_shape1.png	0	71	0	394.18741946778	394.287380290334	0.0999608225538395	stim00_sf1_pattern1_cont1_shape1.png	1	1	1	1	1	3	0	0	0	0	0	0	0	0	0	0	0	0	1	21
199.75634765625	0.0999740185798146	409101	72	3	stim03_sf1_pattern1_cont2_shape2.png	0	72	0	394.687425919139	394.787399937719	0.0999740185798146	stim03_sf1_pattern1_cont2_shape2.png	1	1	2	2	1	1	0	0	0	0	0	0	0	0	0	0	0	0	1	21
200.25634765625	0.0999842821038328	410125	73	6	stim06_sf1_pattern2_cont2_shape1.png	0	73	0	395.187410963699	395.287395245803	0.0999842821038328	stim06_sf1_pattern2_cont2_shape1.png	1	2	2	1	1	4	0	0	0	0	0	0	0	0	0	0	0	0	1	21
200.75634765625	0.100001583545236	411149	74	1	stim01_sf1_pattern1_cont1_shape2.png	0	74	0	395.687396887952	395.787398471497	0.100001583545236	stim01_sf1_pattern1_cont1_shape2.png	1	1	1	2	1	1	0	0	0	0	0	0	0	0	0	0	0	0	1	21
201.25634765625	0.0999974780716002	412173	75	14	stim14_sf2_pattern2_cont2_shape1.png	0	75	0	396.187409790728	396.287407268799	0.0999974780716002	stim14_sf2_pattern2_cont2_shape1.png	2	2	2	1	1	4	0	0	0	0	0	0	0	0	0	0	0	0	1	21
201.75634765625	0.0999848686042242	413197	76	12	stim12_sf2_pattern2_cont1_shape1.png	0	76	0	396.687397181202	396.787382049806	0.0999848686042242	stim12_sf2_pattern2_cont1_shape1.png	2	2	1	1	1	4	0	0	0	0	0	0	0	0	0	0	0	0	1	21
202.25634765625	0.0999954254075419	414221	77	2	stim02_sf1_pattern1_cont2_shape1.png	0	77	0	397.187376947346	397.287372372753	0.0999954254075419	stim02_sf1_pattern1_cont2_shape1.png	1	1	2	1	1	3	0	0	0	0	0	0	0	0	0	0	0	0	1	21
202.75634765625	0.0999895605200436	415245	78	4	stim04_sf1_pattern2_cont1_shape1.png	0	78	0	397.687369616237	397.787359176757	0.0999895605200436	stim04_sf1_pattern2_cont1_shape1.png	1	2	1	1	1	4	0	0	0	0	0	0	0	0	0	0	0	0	1	21
203.25634765625	0.0999954254075419	416269	79	15	stim15_sf2_pattern2_cont2_shape2.png	0	79	0	398.187350555352	398.28734598076	0.0999954254075419	stim15_sf2_pattern2_cont2_shape2.png	2	2	2	2	1	2	0	0	0	0	0	0	0	0	0	0	0	0	1	21
203.75634765625	0.0999699131352827	417293	80	5	stim05_sf1_pattern2_cont1_shape2.png	0	80	0	398.687334720162	398.787304633297	0.0999699131352827	stim05_sf1_pattern2_cont1_shape2.png	1	2	1	2	1	2	0	0	0	0	0	0	0	0	0	0	0	0	1	21
204.25634765625	0.0999992375727743	418317	81	10	stim10_sf2_pattern1_cont2_shape1.png	0	81	0	399.187328855274	399.287328092847	0.0999992375727743	stim10_sf2_pattern1_cont2_shape1.png	2	1	2	1	1	3	0	0	0	0	0	0	0	0	0	0	0	0	1	21
204.75634765625	0.100000997044845	419341	82	7	stim07_sf1_pattern2_cont2_shape2.png	0	82	0	399.687314486306	399.787315483351	0.100000997044845	stim07_sf1_pattern2_cont2_shape2.png	1	2	2	2	1	2	0	0	0	0	0	0	0	0	0	0	0	0	1	21
205.25634765625	0.099997478100704	420365	83	9	stim09_sf2_pattern1_cont1_shape2.png	0	83	0	400.187297771394	400.287295249494	0.099997478100704	stim09_sf2_pattern1_cont1_shape2.png	2	1	1	2	1	1	0	0	0	0	0	0	0	0	0	0	0	0	1	21
205.75634765625	0.0999968916003127	421389	84	13	stim13_sf2_pattern2_cont1_shape2.png	0	84	0	400.687288094341	400.787284985941	0.0999968916003127	stim13_sf2_pattern2_cont1_shape2.png	2	2	1	2	1	2	0	0	0	0	0	0	0	0	0	0	0	0	1	21
206.25634765625	0.0999963051290251	422413	85	3	stim03_sf1_pattern1_cont2_shape2.png	0	85	0	401.187276364566	401.287272669695	0.0999963051290251	stim03_sf1_pattern1_cont2_shape2.png	1	1	2	2	1	1	0	0	0	0	0	0	0	0	0	0	0	0	1	21
206.75634765625	0.100024163315538	423437	86	2	stim02_sf1_pattern1_cont2_shape1.png	0	86	0	401.687238829298	401.787262992613	0.100024163315538	stim02_sf1_pattern1_cont2_shape1.png	1	1	2	1	1	3	0	0	0	0	0	0	0	0	0	0	0	0	1	21
207.25634765625	0.0999919064634014	424461	87	11	stim11_sf2_pattern1_cont2_shape2.png	0	87	0	402.18725554421	402.287247450673	0.0999919064634014	stim11_sf2_pattern1_cont2_shape2.png	2	1	2	2	1	1	0	0	0	0	0	0	0	0	0	0	0	0	1	21
207.75634765625	0.0999971848796122	425485	88	9	stim09_sf2_pattern1_cont1_shape2.png	0	88	0	402.687242054963	402.787239239842	0.0999971848796122	stim09_sf2_pattern1_cont1_shape2.png	2	1	1	2	1	1	0	0	0	0	0	0	0	0	0	0	0	0	1	21
208.25634765625	0.099996598350117	426509	89	12	stim12_sf2_pattern2_cont1_shape1.png	0	89	0	403.187231791439	403.287228389789	0.099996598350117	stim12_sf2_pattern2_cont1_shape1.png	2	2	1	1	1	4	0	0	0	0	0	0	0	0	0	0	0	0	1	21
208.75634765625	0.0999971848505083	427533	90	14	stim14_sf2_pattern2_cont2_shape1.png	0	90	0	403.687219181913	403.787216366763	0.0999971848505083	stim14_sf2_pattern2_cont2_shape1.png	2	2	2	1	1	4	0	0	0	0	0	0	0	0	0	0	0	0	1	21
209.25634765625	0.099997478100704	428557	91	6	stim06_sf1_pattern2_cont2_shape1.png	0	91	0	404.187207452138	404.287204930239	0.099997478100704	stim06_sf1_pattern2_cont2_shape1.png	1	2	2	1	1	4	0	0	0	0	0	0	0	0	0	0	0	0	1	21
209.75634765625	0.0999954253784381	429581	92	5	stim05_sf1_pattern2_cont1_shape2.png	0	92	0	404.687195722392	404.78719114777	0.0999954253784381	stim05_sf1_pattern2_cont1_shape2.png	1	2	1	2	1	2	0	0	0	0	0	0	0	0	0	0	0	0	1	21
210.25634765625	0.099997478100704	430605	93	4	stim04_sf1_pattern2_cont1_shape1.png	0	93	0	405.187184285838	405.287181763939	0.099997478100704	stim04_sf1_pattern2_cont1_shape1.png	1	2	1	1	1	4	0	0	0	0	0	0	0	0	0	0	0	0	1	21
210.755859375	0.100013606541324	431628	94	7	stim07_sf1_pattern2_cont2_shape2.png	0	94	0	405.687155547901	405.787169154442	0.100013606541324	stim07_sf1_pattern2_cont2_shape2.png	1	2	2	2	1	2	0	0	0	0	0	0	0	0	0	0	0	0	1	21
211.255859375	0.099948799557751	432652	95	11	stim11_sf2_pattern1_cont2_shape2.png	0	95	1	406.187167277676	406.287116077234	0.099948799557751	stim11_sf2_pattern1_cont2_shape2.png	2	1	2	2	1	1	0	0	0	0	0	0	0	0	0	0	0	0	1	21
211.755859375	0.0999702063563745	433676	96	11	stim11_sf2_pattern1_cont2_shape2.png	0	96	1	406.687147923571	406.787118129927	0.0999702063563745	stim11_sf2_pattern1_cont2_shape2.png	2	1	2	2	1	1	0	0	0	0	0	0	0	0	0	0	0	0	1	21
212.255859375	0.100003636238398	434700	97	10	stim10_sf2_pattern1_cont2_shape1.png	0	97	2	407.187118305883	407.287121942121	0.100003636238398	stim10_sf2_pattern1_cont2_shape1.png	2	1	2	1	1	3	0	0	0	0	0	0	0	0	0	0	0	0	1	21
212.755859375	0.0999957186286338	435724	98	15	stim15_sf2_pattern2_cont2_shape2.png	0	98	2	407.687106869358	407.787102587987	0.0999957186286338	stim15_sf2_pattern2_cont2_shape2.png	2	2	2	2	1	2	0	0	0	0	0	0	0	0	0	0	0	0	1	21
213.255859375	0.0999746050219983	436748	99	10	stim10_sf2_pattern1_cont2_shape1.png	0	99	0	408.187110095052	408.287084700074	0.0999746050219983	stim10_sf2_pattern1_cont2_shape1.png	2	1	2	1	1	3	0	0	0	0	0	0	0	0	0	0	0	0	1	21
213.755859375	0.0999751915223897	437772	100	0	stim00_sf1_pattern1_cont1_shape1.png	0	100	0	408.687105109886	408.787080301408	0.0999751915223897	stim00_sf1_pattern1_cont1_shape1.png	1	1	1	1	1	3	0	0	0	0	0	0	0	0	0	0	0	0	1	21
214.255859375	0.0999666874413379	438796	101	8	stim08_sf2_pattern1_cont1_shape1.png	0	101	0	409.187095139583	409.287061827024	0.0999666874413379	stim08_sf2_pattern1_cont1_shape1.png	2	1	1	1	1	3	0	0	0	0	0	0	0	0	0	0	0	0	1	21
214.755859375	0.100005395710468	439820	102	1	stim01_sf1_pattern1_cont1_shape2.png	0	102	0	409.687052619149	409.787058014859	0.100005395710468	stim01_sf1_pattern1_cont1_shape2.png	1	1	1	2	1	1	0	0	0	0	0	0	0	0	0	0	0	0	1	21
215.255859375	0.100075481081149	440844	103	15	stim15_sf2_pattern2_cont2_shape2.png	0	103	0	410.187000714912	410.287076195993	0.100075481081149	stim15_sf2_pattern2_cont2_shape2.png	2	2	2	2	1	2	0	0	0	0	0	0	0	0	0	0	0	0	1	21
215.755859375	0.100016245734878	441868	104	7	stim07_sf1_pattern2_cont2_shape2.png	0	104	0	410.687030039349	410.787046285084	0.100016245734878	stim07_sf1_pattern2_cont2_shape2.png	1	2	2	2	1	2	0	0	0	0	0	0	0	0	0	0	0	0	1	21
216.255859375	0.0999787104665302	442892	105	3	stim03_sf1_pattern1_cont2_shape2.png	0	105	0	411.18704587454	411.287024585006	0.0999787104665302	stim03_sf1_pattern1_cont2_shape2.png	1	1	2	2	1	1	0	0	0	0	0	0	0	0	0	0	0	0	1	21
216.755859375	0.100033840368269	443916	106	10	stim10_sf2_pattern1_cont2_shape1.png	0	106	0	411.687040889403	411.787074729771	0.100033840368269	stim10_sf2_pattern1_cont2_shape1.png	2	1	2	1	1	3	0	0	0	0	0	0	0	0	0	0	0	0	1	21
217.255859375	0.100002463237615	444940	107	4	stim04_sf1_pattern2_cont1_shape1.png	0	107	0	412.187024760962	412.2870272242	0.100002463237615	stim04_sf1_pattern2_cont1_shape1.png	1	2	1	1	1	4	0	0	0	0	0	0	0	0	0	0	0	0	1	21
217.755859375	0.0999951321573462	445964	108	6	stim06_sf1_pattern2_cont2_shape1.png	0	108	0	412.687009805493	412.787004937651	0.0999951321573462	stim06_sf1_pattern2_cont2_shape1.png	1	2	2	1	1	4	0	0	0	0	0	0	0	0	0	0	0	0	1	21
218.255859375	0.0999880942690652	446988	109	15	stim15_sf2_pattern2_cont2_shape2.png	0	109	0	413.187010391994	413.286998486263	0.0999880942690652	stim15_sf2_pattern2_cont2_shape2.png	2	2	2	2	1	2	0	0	0	0	0	0	0	0	0	0	0	0	1	21
218.755859375	0.0999980646010954	448012	110	8	stim08_sf2_pattern1_cont1_shape1.png	0	110	0	413.6869834135	413.786981478101	0.0999980646010954	stim08_sf2_pattern1_cont1_shape1.png	2	1	1	1	1	3	0	0	0	0	0	0	0	0	0	0	0	0	1	21
219.255859375	0.0999989443225786	449036	111	14	stim14_sf2_pattern2_cont2_shape1.png	0	111	0	414.186971683725	414.286970628047	0.0999989443225786	stim14_sf2_pattern2_cont2_shape1.png	2	2	2	1	1	4	0	0	0	0	0	0	0	0	0	0	0	0	1	21
219.755859375	0.0999983578512911	450060	112	1	stim01_sf1_pattern1_cont1_shape2.png	0	112	0	414.686973149946	414.786971507798	0.0999983578512911	stim01_sf1_pattern1_cont1_shape2.png	1	1	1	2	1	1	0	0	0	0	0	0	0	0	0	0	0	0	1	21
220.255859375	0.0999916132132057	451084	113	9	stim09_sf2_pattern1_cont1_shape2.png	0	113	0	415.186952622869	415.286944236082	0.0999916132132057	stim09_sf2_pattern1_cont1_shape2.png	2	1	1	2	1	1	0	0	0	0	0	0	0	0	0	0	0	0	1	21
220.755859375	0.0999960118788294	452108	114	5	stim05_sf1_pattern2_cont1_shape2.png	0	114	0	415.686935907928	415.786931919807	0.0999960118788294	stim05_sf1_pattern2_cont1_shape2.png	1	2	1	2	1	2	0	0	0	0	0	0	0	0	0	0	0	0	1	21
221.255859375	0.0999936659354717	453132	115	0	stim00_sf1_pattern1_cont1_shape1.png	0	115	0	416.186928283569	416.286921949504	0.0999936659354717	stim00_sf1_pattern1_cont1_shape1.png	1	1	1	1	1	3	0	0	0	0	0	0	0	0	0	0	0	0	1	21
221.755859375	0.0999968916003127	454156	116	11	stim11_sf2_pattern1_cont2_shape2.png	0	116	0	416.686913034879	416.786909926479	0.0999968916003127	stim11_sf2_pattern1_cont2_shape2.png	2	1	2	2	1	1	0	0	0	0	0	0	0	0	0	0	0	0	1	21
222.255859375	0.0999895604909398	455180	117	2	stim02_sf1_pattern1_cont2_shape1.png	0	117	0	417.186910102435	417.286899662926	0.0999895604909398	stim02_sf1_pattern1_cont2_shape1.png	1	1	2	1	1	3	0	0	0	0	0	0	0	0	0	0	0	0	1	21
222.755859375	0.100005982181756	456204	118	12	stim12_sf2_pattern2_cont1_shape1.png	0	118	0	417.686881364498	417.78688734668	0.100005982181756	stim12_sf2_pattern2_cont1_shape1.png	2	2	1	1	1	4	0	0	0	0	0	0	0	0	0	0	0	0	1	21
223.255859375	0.0999980645719916	457228	119	13	stim13_sf2_pattern2_cont1_shape2.png	0	119	0	418.186878432054	418.286876496626	0.0999980645719916	stim13_sf2_pattern2_cont1_shape2.png	2	2	1	2	1	2	0	0	0	0	0	0	0	0	0	0	0	0	1	21
223.755859375	0.0999948389071506	458252	120	5	stim05_sf1_pattern2_cont1_shape2.png	0	120	0	418.686869634723	418.78686447363	0.0999948389071506	stim05_sf1_pattern2_cont1_shape2.png	1	2	1	2	1	2	0	0	0	0	0	0	0	0	0	0	0	0	1	21
224.255859375	0.0999930794350803	459276	121	6	stim06_sf1_pattern2_cont2_shape1.png	0	121	0	419.186817437236	419.286810516671	0.0999930794350803	stim06_sf1_pattern2_cont2_shape1.png	1	2	2	1	1	4	0	0	0	0	0	0	0	0	0	0	0	0	1	21
224.755859375	0.0999960118788294	460300	122	14	stim14_sf2_pattern2_cont2_shape1.png	0	122	0	419.686842949479	419.786838961358	0.0999960118788294	stim14_sf2_pattern2_cont2_shape1.png	2	2	2	1	1	4	0	0	0	0	0	0	0	0	0	0	0	0	1	21
225.255859375	0.0999930794350803	461324	123	15	stim15_sf2_pattern2_cont2_shape2.png	0	123	0	420.186832685926	420.286825765361	0.0999930794350803	stim15_sf2_pattern2_cont2_shape2.png	2	2	2	2	1	2	0	0	0	0	0	0	0	0	0	0	0	0	1	21
225.755859375	0.0999992375436705	462348	124	13	stim13_sf2_pattern2_cont1_shape2.png	0	124	0	420.68682066293	420.786819900473	0.0999992375436705	stim13_sf2_pattern2_cont1_shape2.png	2	2	1	2	1	2	0	0	0	0	0	0	0	0	0	0	0	0	1	21
226.255859375	0.0999954253784381	463372	125	10	stim10_sf2_pattern1_cont2_shape1.png	0	125	0	421.186810399377	421.286805824755	0.0999954253784381	stim10_sf2_pattern1_cont2_shape1.png	2	1	2	1	1	3	0	0	0	0	0	0	0	0	0	0	0	0	1	21
226.755859375	0.0999919064342976	464396	126	4	stim04_sf1_pattern2_cont1_shape1.png	0	126	0	421.686802188546	421.78679409498	0.0999919064342976	stim04_sf1_pattern2_cont1_shape1.png	1	2	1	1	1	4	0	0	0	0	0	0	0	0	0	0	0	0	1	21
227.255859375	0.0999611158040352	465420	127	0	stim00_sf1_pattern1_cont1_shape1.png	0	127	0	422.186816264264	422.286777380068	0.0999611158040352	stim00_sf1_pattern1_cont1_shape1.png	1	1	1	1	1	3	0	0	0	0	0	0	0	0	0	0	0	0	1	21
227.755859375	0.0999740185507108	466444	128	2	stim02_sf1_pattern1_cont2_shape1.png	0	128	0	422.686779315467	422.786753334018	0.0999740185507108	stim02_sf1_pattern1_cont2_shape1.png	1	1	2	1	1	3	0	0	0	0	0	0	0	0	0	0	0	0	1	21
228.25537109375	0.0999684469134081	467467	129	3	stim03_sf1_pattern1_cont2_shape2.png	0	129	0	423.186767292471	423.286735739384	0.0999684469134081	stim03_sf1_pattern1_cont2_shape2.png	1	1	2	2	1	1	0	0	0	0	0	0	0	0	0	0	0	0	1	21
228.75537109375	0.0999760712729767	468491	130	1	stim01_sf1_pattern1_cont1_shape2.png	0	130	0	423.686748818058	423.786724889331	0.0999760712729767	stim01_sf1_pattern1_cont1_shape2.png	1	1	1	2	1	1	0	0	0	0	0	0	0	0	0	0	0	0	1	21
229.25537109375	0.0999945456569549	469515	131	12	stim12_sf2_pattern2_cont1_shape1.png	0	131	0	424.186743539671	424.286738085328	0.0999945456569549	stim12_sf2_pattern2_cont1_shape1.png	2	2	1	1	1	4	0	0	0	0	0	0	0	0	0	0	0	0	1	21
229.75537109375	0.0999734320794232	470539	132	11	stim11_sf2_pattern1_cont2_shape2.png	0	132	0	424.686724185536	424.786697617616	0.0999734320794232	stim11_sf2_pattern1_cont2_shape2.png	2	1	2	2	1	1	0	0	0	0	0	0	0	0	0	0	0	0	1	21
230.25537109375	0.10003911878448	471563	133	9	stim09_sf2_pattern1_cont1_shape2.png	0	133	0	425.18664999475	425.286689113535	0.10003911878448	stim09_sf2_pattern1_cont1_shape2.png	2	1	1	2	1	1	0	0	0	0	0	0	0	0	0	0	0	0	1	21
230.75537109375	0.0999936659354717	472587	134	8	stim08_sf2_pattern1_cont1_shape1.png	0	134	0	425.686693101656	425.786686767591	0.0999936659354717	stim08_sf2_pattern1_cont1_shape1.png	2	1	1	1	1	3	0	0	0	0	0	0	0	0	0	0	0	0	1	21
231.25537109375	0.0999839888536371	473611	135	7	stim07_sf1_pattern2_cont2_shape2.png	0	135	0	426.186687823269	426.286671812122	0.0999839888536371	stim07_sf1_pattern2_cont2_shape2.png	1	2	2	2	1	2	0	0	0	0	0	0	0	0	0	0	0	0	1	21
231.75537109375	0.0999983578512911	474635	136	8	stim08_sf2_pattern1_cont1_shape1.png	0	136	0	426.686677852937	426.786676210788	0.0999983578512911	stim08_sf2_pattern1_cont1_shape1.png	2	1	1	1	1	3	0	0	0	0	0	0	0	0	0	0	0	0	1	21
232.25537109375	0.10008691760595	475659	137	13	stim13_sf2_pattern2_cont1_shape2.png	0	137	0	427.186685770546	427.286772688152	0.10008691760595	stim13_sf2_pattern2_cont1_shape2.png	2	2	1	2	1	2	0	0	0	0	0	0	0	0	0	0	0	0	1	21
232.75537109375	0.0999895604909398	476683	138	5	stim05_sf1_pattern2_cont1_shape2.png	0	138	0	427.686666123191	427.786655683682	0.0999895604909398	stim05_sf1_pattern2_cont1_shape2.png	1	2	1	2	1	2	0	0	0	0	0	0	0	0	0	0	0	0	1	21
233.25537109375	0.0999989443225786	477707	139	9	stim09_sf2_pattern1_cont1_shape2.png	0	139	0	428.186654979887	428.28665392421	0.0999989443225786	stim09_sf2_pattern1_cont1_shape2.png	2	1	1	2	1	1	0	0	0	0	0	0	0	0	0	0	0	0	1	21
233.75537109375	0.0999965983792208	478731	140	1	stim01_sf1_pattern1_cont1_shape2.png	0	140	0	428.686646182556	428.786642780935	0.0999965983792208	stim01_sf1_pattern1_cont1_shape2.png	1	1	1	2	1	1	0	0	0	0	0	0	0	0	0	0	0	0	1	21
234.25537109375	0.0999388292257208	479755	141	0	stim00_sf1_pattern1_cont1_shape1.png	0	141	0	429.186680198909	429.286619028135	0.0999388292257208	stim00_sf1_pattern1_cont1_shape1.png	1	1	1	1	1	3	0	0	0	0	0	0	0	0	0	0	0	0	1	21
234.75537109375	0.100000703794649	480779	142	3	stim03_sf1_pattern1_cont2_shape2.png	0	142	0	429.686611579731	429.786612283526	0.100000703794649	stim03_sf1_pattern1_cont2_shape2.png	1	1	2	2	1	1	0	0	0	0	0	0	0	0	0	0	0	0	1	21
235.25537109375	0.0999816429102793	481803	143	6	stim06_sf1_pattern2_cont2_shape1.png	0	143	0	430.186614218925	430.286595861835	0.0999816429102793	stim06_sf1_pattern2_cont2_shape1.png	1	2	2	1	1	4	0	0	0	0	0	0	0	0	0	0	0	0	1	21
235.75537109375	0.0999968916003127	482827	144	14	stim14_sf2_pattern2_cont2_shape1.png	0	144	0	430.686588706682	430.786585598282	0.0999968916003127	stim14_sf2_pattern2_cont2_shape1.png	2	2	2	1	1	4	0	0	0	0	0	0	0	0	0	0	0	0	1	21
236.25537109375	0.100000997015741	483851	145	10	stim10_sf2_pattern1_cont2_shape1.png	0	145	0	431.186574924213	431.286575921229	0.100000997015741	stim10_sf2_pattern1_cont2_shape1.png	2	1	2	1	1	3	0	0	0	0	0	0	0	0	0	0	0	0	1	21
236.75537109375	0.100017418735661	484875	146	11	stim11_sf2_pattern1_cont2_shape2.png	0	146	0	431.686544720025	431.786562138761	0.100017418735661	stim11_sf2_pattern1_cont2_shape2.png	2	1	2	2	1	1	0	0	0	0	0	0	0	0	0	0	0	0	1	21
237.25537109375	0.0999927862139884	485899	147	12	stim12_sf2_pattern2_cont1_shape1.png	0	147	0	432.186554983578	432.286547769792	0.0999927862139884	stim12_sf2_pattern2_cont1_shape1.png	2	2	1	1	1	4	0	0	0	0	0	0	0	0	0	0	0	0	1	21
237.75537109375	0.100000997015741	486923	148	2	stim02_sf1_pattern1_cont2_shape1.png	0	148	0	432.686539734888	432.786540731904	0.100000997015741	stim02_sf1_pattern1_cont2_shape1.png	1	1	2	1	1	3	0	0	0	0	0	0	0	0	0	0	0	0	1	21
238.25537109375	0.0999614090542309	487947	149	4	stim04_sf1_pattern2_cont1_shape1.png	0	149	0	433.186530937557	433.286492346611	0.0999614090542309	stim04_sf1_pattern2_cont1_shape1.png	1	2	1	1	1	4	0	0	0	0	0	0	0	0	0	0	0	0	1	21
238.75537109375	0.0999948389071506	488971	150	7	stim07_sf1_pattern2_cont2_shape2.png	0	150	0	433.686522433476	433.786517272383	0.0999948389071506	stim07_sf1_pattern2_cont2_shape2.png	1	2	2	2	1	2	0	0	0	0	0	0	0	0	0	0	0	0	1	21
239.25537109375	0.0999898537411354	489995	151	15	stim15_sf2_pattern2_cont2_shape2.png	0	151	0	434.186508064508	434.286497918249	0.0999898537411354	stim15_sf2_pattern2_cont2_shape2.png	2	2	2	2	1	2	0	0	0	0	0	0	0	0	0	0	0	0	1	21
239.75537109375	0.0999974780716002	491019	152	8	stim08_sf2_pattern1_cont1_shape1.png	0	152	0	434.686495455011	434.786492933083	0.0999974780716002	stim08_sf2_pattern1_cont1_shape1.png	2	1	1	1	1	3	0	0	0	0	0	0	0	0	0	0	0	0	1	21
240.25537109375	0.10004263772862	492043	153	14	stim14_sf2_pattern2_cont2_shape1.png	0	153	0	435.186435339914	435.286477977643	0.10004263772862	stim14_sf2_pattern2_cont2_shape1.png	2	2	2	1	1	4	0	0	0	0	0	0	0	0	0	0	0	0	1	21
240.75537109375	0.100001290265936	493067	154	9	stim09_sf2_pattern1_cont1_shape2.png	0	154	0	435.686469942739	435.786471233005	0.100001290265936	stim09_sf2_pattern1_cont1_shape2.png	2	1	1	2	1	1	0	0	0	0	0	0	0	0	0	0	0	0	1	21
241.25537109375	0.0999989443225786	494091	155	6	stim06_sf1_pattern2_cont2_shape1.png	0	155	0	436.186459972436	436.286458916758	0.0999989443225786	stim06_sf1_pattern2_cont2_shape1.png	1	2	2	1	1	4	0	0	0	0	0	0	0	0	0	0	0	0	1	21
241.75537109375	0.100000410544453	495115	156	7	stim07_sf1_pattern2_cont2_shape2.png	0	156	0	436.686444723746	436.78644513429	0.100000410544453	stim07_sf1_pattern2_cont2_shape2.png	1	2	2	2	1	2	0	0	0	0	0	0	0	0	0	0	0	0	1	21
242.25537109375	0.10002005790011	496139	157	1	stim01_sf1_pattern1_cont1_shape2.png	0	157	0	437.186412466865	437.286432524765	0.10002005790011	stim01_sf1_pattern1_cont1_shape2.png	1	1	1	2	1	1	0	0	0	0	0	0	0	0	0	0	0	0	1	21
242.75537109375	0.0999945456569549	497163	158	11	stim11_sf2_pattern1_cont2_shape2.png	0	158	0	437.686426542583	437.78642108824	0.0999945456569549	stim11_sf2_pattern1_cont2_shape2.png	2	1	2	2	1	1	0	0	0	0	0	0	0	0	0	0	0	0	1	21
243.25537109375	0.0999584766104817	498187	159	3	stim03_sf1_pattern1_cont2_shape2.png	0	159	0	438.186452641326	438.286411117937	0.0999584766104817	stim03_sf1_pattern1_cont2_shape2.png	1	1	2	2	1	1	0	0	0	0	0	0	0	0	0	0	0	0	1	21
243.75537109375	0.100007741653826	499211	160	4	stim04_sf1_pattern2_cont1_shape1.png	0	160	0	438.686399270868	438.786407012522	0.100007741653826	stim04_sf1_pattern2_cont1_shape1.png	1	2	1	1	1	4	0	0	0	0	0	0	0	0	0	0	0	0	1	21
244.25537109375	0.099997478100704	500235	161	2	stim02_sf1_pattern1_cont2_shape1.png	0	161	0	439.186370532931	439.286368011031	0.099997478100704	stim02_sf1_pattern1_cont2_shape1.png	1	1	2	1	1	3	0	0	0	0	0	0	0	0	0	0	0	0	1	21
244.75537109375	0.100015952484682	501259	162	12	stim12_sf2_pattern2_cont1_shape1.png	0	162	0	439.686361735599	439.786377688084	0.100015952484682	stim12_sf2_pattern2_cont1_shape1.png	2	2	1	1	1	4	0	0	0	0	0	0	0	0	0	0	0	0	1	21
245.2548828125	0.100012726790737	502282	163	15	stim15_sf2_pattern2_cont2_shape2.png	0	163	0	440.186350592325	440.286363319115	0.100012726790737	stim15_sf2_pattern2_cont2_shape2.png	2	2	2	2	1	2	0	0	0	0	0	0	0	0	0	0	0	0	1	21
245.7548828125	0.0999951321573462	503306	164	13	stim13_sf2_pattern2_cont1_shape2.png	0	164	0	440.686336516577	440.786331648735	0.0999951321573462	stim13_sf2_pattern2_cont1_shape2.png	2	2	1	2	1	2	0	0	0	0	0	0	0	0	0	0	0	0	1	21
246.2548828125	0.0999693266348913	504330	165	0	stim00_sf1_pattern1_cont1_shape1.png	0	165	0	441.186347366631	441.286316693266	0.0999693266348913	stim00_sf1_pattern1_cont1_shape1.png	1	1	1	1	1	3	0	0	0	0	0	0	0	0	0	0	0	0	1	21
246.7548828125	0.0999790037167259	505354	166	10	stim10_sf2_pattern1_cont2_shape1.png	0	166	0	441.686329771968	441.786308775685	0.0999790037167259	stim10_sf2_pattern1_cont2_shape1.png	2	1	2	1	1	3	0	0	0	0	0	0	0	0	0	0	0	0	1	21
247.2548828125	0.10009483518661	506378	167	5	stim05_sf1_pattern2_cont1_shape2.png	0	167	0	442.186291356978	442.286386192165	0.10009483518661	stim05_sf1_pattern2_cont1_shape2.png	1	2	1	2	1	2	0	0	0	0	0	0	0	0	0	0	0	0	1	21
268.837890625	0.0999910267128143	550580	168	5	stim05_sf1_pattern2_cont1_shape2.png	1	0	0	463.769159262738	463.869150289451	0.0999910267128143	stim05_sf1_pattern2_cont1_shape2.png	1	2	1	2	1	2	0	0	0	0	0	0	0	0	0	0	0	0	1	21
269.337890625	0.100002463237615	551604	169	1	stim01_sf1_pattern1_cont1_shape2.png	1	1	0	464.269143427548	464.369145890785	0.100002463237615	stim01_sf1_pattern1_cont1_shape2.png	1	1	1	2	1	1	0	0	0	0	0	0	0	0	0	0	0	0	1	21
269.837890625	0.0999986510723829	552628	170	7	stim07_sf1_pattern2_cont2_shape2.png	1	2	0	464.769138735632	464.869137386704	0.0999986510723829	stim07_sf1_pattern2_cont2_shape2.png	1	2	2	2	1	2	0	0	0	0	0	0	0	0	0	0	0	0	1	21
270.337890625	0.0999930794350803	553652	171	15	stim15_sf2_pattern2_cont2_shape2.png	1	3	0	465.269121140969	465.369114220404	0.0999930794350803	stim15_sf2_pattern2_cont2_shape2.png	2	2	2	2	1	2	0	0	0	0	0	0	0	0	0	0	0	0	1	21
270.837890625	0.0999998240440618	554676	172	3	stim03_sf1_pattern1_cont2_shape2.png	1	4	0	465.769107358501	465.869107182545	0.0999998240440618	stim03_sf1_pattern1_cont2_shape2.png	1	1	2	2	1	1	0	0	0	0	0	0	0	0	0	0	0	0	1	21
271.337890625	0.0999951321282424	555700	173	11	stim11_sf2_pattern1_cont2_shape2.png	1	5	0	466.269108824723	466.369103956851	0.0999951321282424	stim11_sf2_pattern1_cont2_shape2.png	2	1	2	2	1	1	0	0	0	0	0	0	0	0	0	0	0	0	1	21
271.837890625	0.0999951321282424	556724	174	9	stim09_sf2_pattern1_cont1_shape2.png	1	6	0	466.769085365173	466.869080497301	0.0999951321282424	stim09_sf2_pattern1_cont1_shape2.png	2	1	1	2	1	1	0	0	0	0	0	0	0	0	0	0	0	0	1	21
272.337890625	0.0999960118788294	557748	175	8	stim08_sf2_pattern1_cont1_shape1.png	1	7	0	467.269071582676	467.369067594555	0.0999960118788294	stim08_sf2_pattern1_cont1_shape1.png	2	1	1	1	1	3	0	0	0	0	0	0	0	0	0	0	0	0	1	21
272.837890625	0.100018884928431	558772	176	2	stim02_sf1_pattern1_cont2_shape1.png	1	8	0	467.769035806879	467.869054691808	0.100018884928431	stim02_sf1_pattern1_cont2_shape1.png	1	1	2	1	1	3	0	0	0	0	0	0	0	0	0	0	0	0	1	21
273.337890625	0.0999939591856673	559796	177	4	stim04_sf1_pattern2_cont1_shape1.png	1	9	0	468.269051055569	468.369045014755	0.0999939591856673	stim04_sf1_pattern2_cont1_shape1.png	1	2	1	1	1	4	0	0	0	0	0	0	0	0	0	0	0	0	1	21
273.837890625	0.0999945456569549	560820	178	0	stim00_sf1_pattern1_cont1_shape1.png	1	10	0	468.769040205545	468.869034751202	0.0999945456569549	stim00_sf1_pattern1_cont1_shape1.png	1	1	1	1	1	3	0	0	0	0	0	0	0	0	0	0	0	0	1	21
274.33740234375	0.0999963050999213	561843	179	6	stim06_sf1_pattern2_cont2_shape1.png	1	11	0	469.269026129827	469.369022434927	0.0999963050999213	stim06_sf1_pattern2_cont2_shape1.png	1	2	2	1	1	4	0	0	0	0	0	0	0	0	0	0	0	0	1	21
274.83740234375	0.0999930794350803	562867	180	12	stim12_sf2_pattern2_cont1_shape1.png	1	12	0	469.769014400052	469.869007479487	0.0999930794350803	stim12_sf2_pattern2_cont1_shape1.png	2	2	1	1	1	4	0	0	0	0	0	0	0	0	0	0	0	0	1	21
275.33740234375	0.100042344449321	563891	181	10	stim10_sf2_pattern1_cont2_shape1.png	1	13	0	470.268956924177	470.368999268627	0.100042344449321	stim10_sf2_pattern1_cont2_shape1.png	2	1	2	1	1	3	0	0	0	0	0	0	0	0	0	0	0	0	1	21
275.83740234375	0.0999936659354717	564915	182	14	stim14_sf2_pattern2_cont2_shape1.png	1	14	0	470.768992113473	470.868985779409	0.0999936659354717	stim14_sf2_pattern2_cont2_shape1.png	2	2	2	1	1	4	0	0	0	0	0	0	0	0	0	0	0	0	1	21
276.33740234375	0.099990440212423	565939	183	13	stim13_sf2_pattern2_cont1_shape2.png	1	15	0	471.268978624255	471.368969064468	0.099990440212423	stim13_sf2_pattern2_cont1_shape2.png	2	2	1	2	1	2	0	0	0	0	0	0	0	0	0	0	0	0	1	21
276.83740234375	0.0999930794350803	566963	184	6	stim06_sf1_pattern2_cont2_shape1.png	1	16	0	471.768968653923	471.868961733358	0.0999930794350803	stim06_sf1_pattern2_cont2_shape1.png	1	2	2	1	1	4	0	0	0	0	0	0	0	0	0	0	0	0	1	21
277.33740234375	0.100009501125896	567987	185	5	stim05_sf1_pattern2_cont1_shape2.png	1	17	0	472.268944021402	472.368953522528	0.100009501125896	stim05_sf1_pattern2_cont1_shape2.png	1	2	1	2	1	2	0	0	0	0	0	0	0	0	0	0	0	0	1	21
277.83740234375	0.0999687401345	569011	186	9	stim09_sf2_pattern1_cont1_shape2.png	1	18	0	472.768945194402	472.868913934537	0.0999687401345	stim09_sf2_pattern1_cont1_shape2.png	2	1	1	2	1	1	0	0	0	0	0	0	0	0	0	0	0	0	1	21
278.33740234375	0.10003296067589	570035	187	1	stim01_sf1_pattern1_cont1_shape2.png	1	19	0	473.268895049609	473.368928010284	0.10003296067589	stim01_sf1_pattern1_cont1_shape2.png	1	1	1	2	1	1	0	0	0	0	0	0	0	0	0	0	0	0	1	21
278.83740234375	0.09999131996301	571059	188	7	stim07_sf1_pattern2_cont2_shape2.png	1	20	0	473.768924374046	473.868915694009	0.09999131996301	stim07_sf1_pattern2_cont2_shape2.png	1	2	2	2	1	2	0	0	0	0	0	0	0	0	0	0	0	0	1	21
279.33740234375	0.100049675587798	572083	189	12	stim12_sf2_pattern2_cont1_shape1.png	1	21	0	474.268860740034	474.368910415622	0.100049675587798	stim12_sf2_pattern2_cont1_shape1.png	2	2	1	1	1	4	0	0	0	0	0	0	0	0	0	0	0	0	1	21
279.83740234375	0.100025043066125	573107	190	11	stim11_sf2_pattern1_cont2_shape2.png	1	22	0	474.768878921168	474.868903964234	0.100025043066125	stim11_sf2_pattern1_cont2_shape2.png	2	1	2	2	1	1	0	0	0	0	0	0	0	0	0	0	0	0	1	21
280.33740234375	0.100013606541324	574131	191	13	stim13_sf2_pattern2_cont1_shape2.png	1	23	0	475.26886543195	475.368879038491	0.100013606541324	stim13_sf2_pattern2_cont1_shape2.png	2	2	1	2	1	2	0	0	0	0	0	0	0	0	0	0	0	0	1	21
280.83740234375	0.100015659234487	575155	192	0	stim00_sf1_pattern1_cont1_shape1.png	1	24	0	475.768858100841	475.868873760075	0.100015659234487	stim00_sf1_pattern1_cont1_shape1.png	1	1	1	1	1	3	0	0	0	0	0	0	0	0	0	0	0	0	1	21
281.33740234375	0.0999986510723829	576179	193	4	stim04_sf1_pattern2_cont1_shape1.png	1	25	0	476.268864258978	476.368862910051	0.0999986510723829	stim04_sf1_pattern2_cont1_shape1.png	1	2	1	1	1	4	0	0	0	0	0	0	0	0	0	0	0	0	1	21
281.83740234375	0.099996598350117	577203	194	14	stim14_sf2_pattern2_cont2_shape1.png	1	26	0	476.768827896682	476.868824495032	0.099996598350117	stim14_sf2_pattern2_cont2_shape1.png	2	2	2	1	1	4	0	0	0	0	0	0	0	0	0	0	0	0	1	21
282.33740234375	0.0999760712729767	578227	195	8	stim08_sf2_pattern1_cont1_shape1.png	1	27	0	477.268836107512	477.368812178785	0.0999760712729767	stim08_sf2_pattern1_cont1_shape1.png	2	1	1	1	1	3	0	0	0	0	0	0	0	0	0	0	0	0	1	21
282.83740234375	0.0999963051290251	579251	196	3	stim03_sf1_pattern1_cont2_shape2.png	1	28	0	477.768805903353	477.868802208483	0.0999963051290251	stim03_sf1_pattern1_cont2_shape2.png	1	1	2	2	1	1	0	0	0	0	0	0	0	0	0	0	0	0	1	21
283.33740234375	0.0999933726561721	580275	197	15	stim15_sf2_pattern2_cont2_shape2.png	1	29	0	478.26882643046	478.368819803116	0.0999933726561721	stim15_sf2_pattern2_cont2_shape2.png	2	2	2	2	1	2	0	0	0	0	0	0	0	0	0	0	0	0	1	21
283.83740234375	0.0999839888536371	581299	198	10	stim10_sf2_pattern1_cont2_shape1.png	1	30	0	478.768817926379	478.868801915232	0.0999839888536371	stim10_sf2_pattern1_cont2_shape1.png	2	1	2	1	1	3	0	0	0	0	0	0	0	0	0	0	0	0	1	21
284.33740234375	0.0999250467575621	582323	199	4	stim04_sf1_pattern2_cont1_shape1.png	1	31	1	479.268869244115	479.368794290873	0.0999250467575621	stim04_sf1_pattern2_cont1_shape1.png	1	2	1	1	1	4	0	0	0	0	0	0	0	0	0	0	0	0	1	21
284.83740234375	0.099997478100704	583347	200	4	stim04_sf1_pattern2_cont1_shape1.png	1	32	1	479.768785962748	479.868783440848	0.099997478100704	stim04_sf1_pattern2_cont1_shape1.png	1	2	1	1	1	4	0	0	0	0	0	0	0	0	0	0	0	0	1	21
285.33740234375	0.0999933726561721	584371	201	7	stim07_sf1_pattern2_cont2_shape2.png	1	33	2	480.268783030304	480.36877640296	0.0999933726561721	stim07_sf1_pattern2_cont2_shape2.png	1	2	2	2	1	2	0	0	0	0	0	0	0	0	0	0	0	0	1	21
285.83740234375	0.0999954253784381	585395	202	10	stim10_sf2_pattern1_cont2_shape1.png	1	34	2	480.768759570754	480.868754996132	0.0999954253784381	stim10_sf2_pattern1_cont2_shape1.png	2	1	2	1	1	3	0	0	0	0	0	0	0	0	0	0	0	0	1	21
286.33740234375	0.099997478100704	586419	203	2	stim02_sf1_pattern1_cont2_shape1.png	1	35	0	481.268748134229	481.36874561233	0.099997478100704	stim02_sf1_pattern1_cont2_shape1.png	1	1	2	1	1	3	0	0	0	0	0	0	0	0	0	0	0	0	1	21
286.83740234375	0.100019471428823	587443	204	13	stim13_sf2_pattern2_cont1_shape2.png	1	36	0	481.768747254479	481.868766725907	0.100019471428823	stim13_sf2_pattern2_cont1_shape2.png	2	2	1	2	1	2	0	0	0	0	0	0	0	0	0	0	0	0	1	21
287.33740234375	0.10000568893156	588467	205	15	stim15_sf2_pattern2_cont2_shape2.png	1	37	0	482.268713824655	482.368719513586	0.10000568893156	stim15_sf2_pattern2_cont2_shape2.png	2	2	2	2	1	2	0	0	0	0	0	0	0	0	0	0	0	0	1	21
287.83740234375	0.0999989443225786	589491	206	1	stim01_sf1_pattern1_cont1_shape2.png	1	38	0	482.768711478682	482.868710423005	0.0999989443225786	stim01_sf1_pattern1_cont1_shape2.png	1	1	1	2	1	1	0	0	0	0	0	0	0	0	0	0	0	0	1	21
288.33740234375	0.0999954254075419	590515	207	10	stim10_sf2_pattern1_cont2_shape1.png	1	39	0	483.268701215129	483.368696640537	0.0999954254075419	stim10_sf2_pattern1_cont2_shape1.png	2	1	2	1	1	3	0	0	0	0	0	0	0	0	0	0	0	0	1	21
288.83740234375	0.0999927861848846	591539	208	6	stim06_sf1_pattern2_cont2_shape1.png	1	40	0	483.768696523242	483.868689309427	0.0999927861848846	stim06_sf1_pattern2_cont2_shape1.png	1	2	2	1	1	4	0	0	0	0	0	0	0	0	0	0	0	0	1	21
289.33740234375	0.0999628752761055	592563	209	8	stim08_sf2_pattern1_cont1_shape1.png	1	41	0	484.268675702886	484.368638578162	0.0999628752761055	stim08_sf2_pattern1_cont1_shape1.png	2	1	1	1	1	3	0	0	0	0	0	0	0	0	0	0	0	0	1	21
289.83740234375	0.100002463266719	593587	210	11	stim11_sf2_pattern1_cont2_shape2.png	1	42	0	484.768663679861	484.868666143127	0.100002463266719	stim11_sf2_pattern1_cont2_shape2.png	2	1	2	2	1	1	0	0	0	0	0	0	0	0	0	0	0	0	1	21
290.33740234375	0.0999942524067592	594611	211	14	stim14_sf2_pattern2_cont2_shape1.png	1	43	0	485.26865546903	485.368649721437	0.0999942524067592	stim14_sf2_pattern2_cont2_shape1.png	2	2	2	1	1	4	0	0	0	0	0	0	0	0	0	0	0	0	1	21
290.83740234375	0.0999963051290251	595635	212	9	stim09_sf2_pattern1_cont1_shape2.png	1	44	0	485.768645205477	485.868641510606	0.0999963051290251	stim09_sf2_pattern1_cont1_shape2.png	2	1	1	2	1	1	0	0	0	0	0	0	0	0	0	0	0	0	1	21
291.33740234375	0.0999963051290251	596659	213	7	stim07_sf1_pattern2_cont2_shape2.png	1	45	0	486.26863171623	486.368628021359	0.0999963051290251	stim07_sf1_pattern2_cont2_shape2.png	1	2	2	2	1	2	0	0	0	0	0	0	0	0	0	0	0	0	1	21
291.8369140625	0.0999998240440618	597682	214	0	stim00_sf1_pattern1_cont1_shape1.png	1	46	0	486.768619106733	486.868618930777	0.0999998240440618	stim00_sf1_pattern1_cont1_shape1.png	1	1	1	1	1	3	0	0	0	0	0	0	0	0	0	0	0	0	1	21
292.3369140625	0.0999945456569549	598706	215	2	stim02_sf1_pattern1_cont2_shape1.png	1	47	0	487.268609429681	487.368603975337	0.0999945456569549	stim02_sf1_pattern1_cont2_shape1.png	1	1	2	1	1	3	0	0	0	0	0	0	0	0	0	0	0	0	1	21
292.8369140625	0.0999957186286338	599730	216	5	stim05_sf1_pattern2_cont1_shape2.png	1	48	0	487.768599459378	487.868595178006	0.0999957186286338	stim05_sf1_pattern2_cont1_shape2.png	1	2	1	2	1	2	0	0	0	0	0	0	0	0	0	0	0	0	1	21
293.3369140625	0.100005982181756	600754	217	12	stim12_sf2_pattern2_cont1_shape1.png	1	49	0	488.268564270053	488.368570252234	0.100005982181756	stim12_sf2_pattern2_cont1_shape1.png	2	2	1	1	1	4	0	0	0	0	0	0	0	0	0	0	0	0	1	21
293.8369140625	0.0999992375436705	601778	218	3	stim03_sf1_pattern1_cont2_shape2.png	1	50	0	488.768574826856	488.8685740644	0.0999992375436705	stim03_sf1_pattern1_cont2_shape2.png	1	1	2	2	1	1	0	0	0	0	0	0	0	0	0	0	0	0	1	21
294.3369140625	0.0999578901100904	602802	219	4	stim04_sf1_pattern2_cont1_shape1.png	1	51	0	489.268563390331	489.368521280441	0.0999578901100904	stim04_sf1_pattern2_cont1_shape1.png	1	2	1	1	1	4	0	0	0	0	0	0	0	0	0	0	0	0	1	21
294.8369140625	0.100011553819058	603826	220	9	stim09_sf2_pattern1_cont1_shape2.png	1	52	0	489.76854667539	489.868558229209	0.100011553819058	stim09_sf2_pattern1_cont1_shape2.png	2	1	1	2	1	1	0	0	0	0	0	0	0	0	0	0	0	0	1	21
295.3369140625	0.0999751915223897	604850	221	3	stim03_sf1_pattern1_cont2_shape2.png	1	53	0	490.268540224031	490.368515415554	0.0999751915223897	stim03_sf1_pattern1_cont2_shape2.png	1	1	2	2	1	1	0	0	0	0	0	0	0	0	0	0	0	0	1	21
295.8369140625	0.0999816429102793	605874	222	8	stim08_sf2_pattern1_cont1_shape1.png	1	54	0	490.768525268562	490.868506911473	0.0999816429102793	stim08_sf2_pattern1_cont1_shape1.png	2	1	1	1	1	3	0	0	0	0	0	0	0	0	0	0	0	0	1	21
296.3369140625	0.0999951321573462	606898	223	12	stim12_sf2_pattern2_cont1_shape1.png	1	55	0	491.268500342791	491.368495474948	0.0999951321573462	stim12_sf2_pattern2_cont1_shape1.png	2	2	1	1	1	4	0	0	0	0	0	0	0	0	0	0	0	0	1	21
296.8369140625	0.0999980645719916	607922	224	4	stim04_sf1_pattern2_cont1_shape1.png	1	56	0	491.768479522463	491.868477587035	0.0999980645719916	stim04_sf1_pattern2_cont1_shape1.png	1	2	1	1	1	4	0	0	0	0	0	0	0	0	0	0	0	0	1	21
297.3369140625	0.099996598350117	608946	225	6	stim06_sf1_pattern2_cont2_shape1.png	1	57	0	492.268467792688	492.368464391038	0.099996598350117	stim06_sf1_pattern2_cont2_shape1.png	1	2	2	1	1	4	0	0	0	0	0	0	0	0	0	0	0	0	1	21
297.8369140625	0.0999854550755117	609970	226	2	stim02_sf1_pattern1_cont2_shape1.png	1	58	0	492.76846867241	492.868454127485	0.0999854550755117	stim02_sf1_pattern1_cont2_shape1.png	1	1	2	1	1	3	0	0	0	0	0	0	0	0	0	0	0	0	1	21
298.3369140625	0.0999954253784381	610994	227	1	stim01_sf1_pattern1_cont1_shape2.png	1	59	0	493.26844609261	493.368441517989	0.0999954253784381	stim01_sf1_pattern1_cont1_shape2.png	1	1	1	2	1	1	0	0	0	0	0	0	0	0	0	0	0	0	1	21
298.8369140625	0.0999951321573462	612018	228	13	stim13_sf2_pattern2_cont1_shape2.png	1	60	0	493.768467206188	493.868462338345	0.0999951321573462	stim13_sf2_pattern2_cont1_shape2.png	2	2	1	2	1	2	0	0	0	0	0	0	0	0	0	0	0	0	1	21
299.3369140625	0.0999998240440618	613042	229	7	stim07_sf1_pattern2_cont2_shape2.png	1	61	0	494.268448731804	494.368448555848	0.0999998240440618	stim07_sf1_pattern2_cont2_shape2.png	1	2	2	2	1	2	0	0	0	0	0	0	0	0	0	0	0	0	1	21
299.8369140625	0.100000117294258	614066	230	5	stim05_sf1_pattern2_cont1_shape2.png	1	62	0	494.768437002029	494.868437119323	0.100000117294258	stim05_sf1_pattern2_cont1_shape2.png	1	2	1	2	1	2	0	0	0	0	0	0	0	0	0	0	0	0	1	21
300.3369140625	0.100038239062997	615090	231	10	stim10_sf2_pattern1_cont2_shape1.png	1	63	0	495.268386564014	495.368424803077	0.100038239062997	stim10_sf2_pattern1_cont2_shape1.png	2	1	2	1	1	3	0	0	0	0	0	0	0	0	0	0	0	0	1	21
300.8369140625	0.0999939591565635	616114	232	14	stim14_sf2_pattern2_cont2_shape1.png	1	64	0	495.76842292631	495.868416885467	0.0999939591565635	stim14_sf2_pattern2_cont2_shape1.png	2	2	2	1	1	4	0	0	0	0	0	0	0	0	0	0	0	0	1	21
301.3369140625	0.0999989443225786	617138	233	0	stim00_sf1_pattern1_cont1_shape1.png	1	65	0	496.26839888026	496.368397824583	0.0999989443225786	stim00_sf1_pattern1_cont1_shape1.png	1	1	1	1	1	3	0	0	0	0	0	0	0	0	0	0	0	0	1	21
301.8369140625	0.0999963050999213	618162	234	15	stim15_sf2_pattern2_cont2_shape2.png	1	66	0	496.768389496458	496.868385801557	0.0999963050999213	stim15_sf2_pattern2_cont2_shape2.png	2	2	2	2	1	2	0	0	0	0	0	0	0	0	0	0	0	0	1	21
302.3369140625	0.0999848685751203	619186	235	11	stim11_sf2_pattern1_cont2_shape2.png	1	67	0	497.268389789708	497.368374658283	0.0999848685751203	stim11_sf2_pattern1_cont2_shape2.png	2	1	2	2	1	1	0	0	0	0	0	0	0	0	0	0	0	0	1	21
302.8369140625	0.10003911878448	620210	236	0	stim00_sf1_pattern1_cont1_shape1.png	1	68	0	497.768324102974	497.868363221758	0.10003911878448	stim00_sf1_pattern1_cont1_shape1.png	1	1	1	1	1	3	0	0	0	0	0	0	0	0	0	0	0	0	1	21
303.3369140625	0.0999960118788294	621234	237	14	stim14_sf2_pattern2_cont2_shape1.png	1	69	0	498.268352840911	498.368348852789	0.0999960118788294	stim14_sf2_pattern2_cont2_shape1.png	2	2	2	1	1	4	0	0	0	0	0	0	0	0	0	0	0	0	1	21
303.8369140625	0.0999957186286338	622258	238	15	stim15_sf2_pattern2_cont2_shape2.png	1	70	0	498.768341990886	498.868337709515	0.0999957186286338	stim15_sf2_pattern2_cont2_shape2.png	2	2	2	2	1	2	0	0	0	0	0	0	0	0	0	0	0	0	1	21
304.3369140625	0.100000703794649	623282	239	5	stim05_sf1_pattern2_cont1_shape2.png	1	71	0	499.268330847583	499.368331551377	0.100000703794649	stim05_sf1_pattern2_cont1_shape2.png	1	2	1	2	1	2	0	0	0	0	0	0	0	0	0	0	0	0	1	21
304.8369140625	0.100022110622376	624306	240	11	stim11_sf2_pattern1_cont2_shape2.png	1	72	0	499.768293019064	499.868315129686	0.100022110622376	stim11_sf2_pattern1_cont2_shape2.png	2	1	2	2	1	1	0	0	0	0	0	0	0	0	0	0	0	0	1	21
305.3369140625	0.0999927862139884	625330	241	8	stim08_sf2_pattern1_cont1_shape1.png	1	73	0	500.268307388033	500.368300174247	0.0999927862139884	stim08_sf2_pattern1_cont1_shape1.png	2	1	1	1	1	3	0	0	0	0	0	0	0	0	0	0	0	0	1	21
305.8369140625	0.099997478100704	626354	242	1	stim01_sf1_pattern1_cont1_shape2.png	1	74	0	500.768295951508	500.868293429608	0.099997478100704	stim01_sf1_pattern1_cont1_shape2.png	1	1	1	2	1	1	0	0	0	0	0	0	0	0	0	0	0	0	1	21
306.3369140625	0.0999910267419182	627378	243	9	stim09_sf2_pattern1_cont1_shape2.png	1	75	0	501.268291846092	501.368282872834	0.0999910267419182	stim09_sf2_pattern1_cont1_shape2.png	2	1	1	2	1	1	0	0	0	0	0	0	0	0	0	0	0	0	1	21
306.8369140625	0.0999960118788294	628402	244	10	stim10_sf2_pattern1_cont2_shape1.png	1	76	0	501.768273078458	501.868269090337	0.0999960118788294	stim10_sf2_pattern1_cont2_shape1.png	2	1	2	1	1	3	0	0	0	0	0	0	0	0	0	0	0	0	1	21
307.3369140625	0.0999775374948513	629426	245	3	stim03_sf1_pattern1_cont2_shape2.png	1	77	0	502.268264574377	502.368242111872	0.0999775374948513	stim03_sf1_pattern1_cont2_shape2.png	1	1	2	2	1	1	0	0	0	0	0	0	0	0	0	0	0	0	1	21
307.8369140625	0.0999713793571573	630450	246	4	stim04_sf1_pattern2_cont1_shape1.png	1	78	0	502.768247566215	502.868218945572	0.0999713793571573	stim04_sf1_pattern2_cont1_shape1.png	1	2	1	1	1	4	0	0	0	0	0	0	0	0	0	0	0	0	1	21
308.3369140625	0.0999921996844932	631474	247	6	stim06_sf1_pattern2_cont2_shape1.png	1	79	0	503.268243167549	503.368235367234	0.0999921996844932	stim06_sf1_pattern2_cont2_shape1.png	1	2	2	1	1	4	0	0	0	0	0	0	0	0	0	0	0	0	1	21
308.83642578125	0.0999963051290251	632497	248	7	stim07_sf1_pattern2_cont2_shape2.png	1	80	0	503.768226452608	503.868222757737	0.0999963051290251	stim07_sf1_pattern2_cont2_shape2.png	1	2	2	2	1	2	0	0	0	0	0	0	0	0	0	0	0	0	1	21
309.33642578125	0.0999883875192609	633521	249	13	stim13_sf2_pattern2_cont1_shape2.png	1	81	0	504.268224399915	504.368212787434	0.0999883875192609	stim13_sf2_pattern2_cont1_shape2.png	2	2	1	2	1	2	0	0	0	0	0	0	0	0	0	0	0	0	1	21
309.83642578125	0.0999942524067592	634545	250	12	stim12_sf2_pattern2_cont1_shape1.png	1	82	0	504.768205632281	504.868199884688	0.0999942524067592	stim12_sf2_pattern2_cont1_shape1.png	2	2	1	1	1	4	0	0	0	0	0	0	0	0	0	0	0	0	1	21
310.33642578125	0.0999954253784381	635569	251	2	stim02_sf1_pattern1_cont2_shape1.png	1	83	0	505.2681965417	505.368191967078	0.0999954253784381	stim02_sf1_pattern1_cont2_shape1.png	1	1	2	1	1	3	0	0	0	0	0	0	0	0	0	0	0	0	1	21
310.83642578125	0.0999792969669215	636593	252	15	stim15_sf2_pattern2_cont2_shape2.png	1	84	0	505.768177480815	505.868156777782	0.0999792969669215	stim15_sf2_pattern2_cont2_shape2.png	2	2	2	2	1	2	0	0	0	0	0	0	0	0	0	0	0	0	1	21
311.33642578125	0.0999901469913311	637617	253	14	stim14_sf2_pattern2_cont2_shape1.png	1	85	0	506.268154901016	506.368145048007	0.0999901469913311	stim14_sf2_pattern2_cont2_shape1.png	2	2	2	1	1	4	0	0	0	0	0	0	0	0	0	0	0	0	1	21
311.83642578125	0.099996598350117	638641	254	11	stim11_sf2_pattern1_cont2_shape2.png	1	86	0	506.768133200938	506.868129799288	0.099996598350117	stim11_sf2_pattern1_cont2_shape2.png	2	1	2	2	1	1	0	0	0	0	0	0	0	0	0	0	0	0	1	21
312.33642578125	0.0999787104665302	639665	255	6	stim06_sf1_pattern2_cont2_shape1.png	1	87	0	507.268144930713	507.368123641179	0.0999787104665302	stim06_sf1_pattern2_cont2_shape1.png	1	2	2	1	1	4	0	0	0	0	0	0	0	0	0	0	0	0	1	21
312.83642578125	0.0999848686042242	640689	256	7	stim07_sf1_pattern2_cont2_shape2.png	1	88	0	507.768121177913	507.868106046517	0.0999848686042242	stim07_sf1_pattern2_cont2_shape2.png	1	2	2	2	1	2	0	0	0	0	0	0	0	0	0	0	0	0	1	21
313.33642578125	0.0999699131352827	641713	257	3	stim03_sf1_pattern1_cont2_shape2.png	1	89	0	508.268122350884	508.36809226402	0.0999699131352827	stim03_sf1_pattern1_cont2_shape2.png	1	1	2	2	1	1	0	0	0	0	0	0	0	0	0	0	0	0	1	21
313.83642578125	0.099979003687622	642737	258	4	stim04_sf1_pattern2_cont1_shape1.png	1	90	0	508.768107395445	508.868086399132	0.099979003687622	stim04_sf1_pattern2_cont1_shape1.png	1	2	1	1	1	4	0	0	0	0	0	0	0	0	0	0	0	0	1	21
314.33642578125	0.100001290265936	643761	259	10	stim10_sf2_pattern1_cont2_shape1.png	1	91	0	509.2681038765	509.368105166766	0.100001290265936	stim10_sf2_pattern1_cont2_shape1.png	2	1	2	1	1	3	0	0	0	0	0	0	0	0	0	0	0	0	1	21
314.83642578125	0.100001583516132	644785	260	0	stim00_sf1_pattern1_cont1_shape1.png	1	92	0	509.768090094032	509.868091677548	0.100001583516132	stim00_sf1_pattern1_cont1_shape1.png	1	1	1	1	1	3	0	0	0	0	0	0	0	0	0	0	0	0	1	21
315.33642578125	0.100000117294258	645809	261	5	stim05_sf1_pattern2_cont1_shape2.png	1	93	0	510.268079830479	510.368079947773	0.100000117294258	stim05_sf1_pattern2_cont1_shape2.png	1	2	1	2	1	2	0	0	0	0	0	0	0	0	0	0	0	0	1	21
315.83642578125	0.100002170016523	646833	262	2	stim02_sf1_pattern1_cont2_shape1.png	1	94	0	510.768068100704	510.868070270721	0.100002170016523	stim02_sf1_pattern1_cont2_shape1.png	1	1	2	1	1	3	0	0	0	0	0	0	0	0	0	0	0	0	1	21
316.33642578125	0.0999904402415268	647857	263	1	stim01_sf1_pattern1_cont1_shape2.png	1	95	0	511.268067514204	511.368057954445	0.0999904402415268	stim01_sf1_pattern1_cont1_shape2.png	1	1	1	2	1	1	0	0	0	0	0	0	0	0	0	0	0	0	1	21
316.83642578125	0.0999977713508997	648881	264	9	stim09_sf2_pattern1_cont1_shape2.png	1	96	0	511.76804141546	511.868039186811	0.0999977713508997	stim09_sf2_pattern1_cont1_shape2.png	2	1	1	2	1	1	0	0	0	0	0	0	0	0	0	0	0	0	1	21
317.33642578125	0.0999951321282424	649905	265	13	stim13_sf2_pattern2_cont1_shape2.png	1	97	0	512.268032324908	512.368027457036	0.0999951321282424	stim13_sf2_pattern2_cont1_shape2.png	2	2	1	2	1	2	0	0	0	0	0	0	0	0	0	0	0	0	1	21
317.83642578125	0.0999801766884048	650929	266	12	stim12_sf2_pattern2_cont1_shape1.png	1	98	0	512.768035550573	512.868015727261	0.0999801766884048	stim12_sf2_pattern2_cont1_shape1.png	2	2	1	1	1	4	0	0	0	0	0	0	0	0	0	0	0	0	1	21
318.33642578125	0.0999948389071506	651953	267	8	stim08_sf2_pattern1_cont1_shape1.png	1	99	0	513.268007399136	513.368002238043	0.0999948389071506	stim08_sf2_pattern1_cont1_shape1.png	2	1	1	1	1	3	0	0	0	0	0	0	0	0	0	0	0	0	1	21
318.83642578125	0.0999986510723829	652977	268	5	stim05_sf1_pattern2_cont1_shape2.png	1	100	0	513.767996842333	513.867995493405	0.0999986510723829	stim05_sf1_pattern2_cont1_shape2.png	1	2	1	2	1	2	0	0	0	0	0	0	0	0	0	0	0	0	1	21
319.33642578125	0.0999977713508997	654001	269	7	stim07_sf1_pattern2_cont2_shape2.png	1	101	0	514.267984819307	514.367982590658	0.0999977713508997	stim07_sf1_pattern2_cont2_shape2.png	1	2	2	2	1	2	0	0	0	0	0	0	0	0	0	0	0	0	1	21
319.83642578125	0.0999942524067592	655025	270	13	stim13_sf2_pattern2_cont1_shape2.png	1	102	0	514.767973676033	514.86796792844	0.0999942524067592	stim13_sf2_pattern2_cont1_shape2.png	2	2	1	2	1	2	0	0	0	0	0	0	0	0	0	0	0	0	1	21
320.33642578125	0.0999983578512911	656049	271	15	stim15_sf2_pattern2_cont2_shape2.png	1	103	0	515.267961653008	515.367960010859	0.0999983578512911	stim15_sf2_pattern2_cont2_shape2.png	2	2	2	2	1	2	0	0	0	0	0	0	0	0	0	0	0	0	1	21
320.83642578125	0.0999957186286338	657073	272	1	stim01_sf1_pattern1_cont1_shape2.png	1	104	0	515.767959893565	515.867955612193	0.0999957186286338	stim01_sf1_pattern1_cont1_shape2.png	1	1	1	2	1	1	0	0	0	0	0	0	0	0	0	0	0	0	1	21
321.33642578125	0.099963461747393	658097	273	9	stim09_sf2_pattern1_cont1_shape2.png	1	105	0	516.267938193487	516.367901655234	0.099963461747393	stim09_sf2_pattern1_cont1_shape2.png	2	1	1	2	1	1	0	0	0	0	0	0	0	0	0	0	0	0	1	21
321.83642578125	0.0999951321282424	659121	274	2	stim02_sf1_pattern1_cont2_shape1.png	1	106	0	516.767926756962	516.86792188909	0.0999951321282424	stim02_sf1_pattern1_cont2_shape1.png	1	1	2	1	1	3	0	0	0	0	0	0	0	0	0	0	0	0	1	21
322.33642578125	0.0999977713508997	660145	275	11	stim11_sf2_pattern1_cont2_shape2.png	1	107	0	517.267914733937	517.367912505288	0.0999977713508997	stim11_sf2_pattern1_cont2_shape2.png	2	1	2	2	1	1	0	0	0	0	0	0	0	0	0	0	0	0	1	21
322.83642578125	0.0999963050999213	661169	276	0	stim00_sf1_pattern1_cont1_shape1.png	1	108	0	517.767903590662	517.867899895762	0.0999963050999213	stim00_sf1_pattern1_cont1_shape1.png	1	1	1	1	1	3	0	0	0	0	0	0	0	0	0	0	0	0	1	21
323.33642578125	0.100032374175498	662193	277	14	stim14_sf2_pattern2_cont2_shape1.png	1	109	0	518.267840249871	518.367872624047	0.100032374175498	stim14_sf2_pattern2_cont2_shape1.png	2	2	2	1	1	4	0	0	0	0	0	0	0	0	0	0	0	0	1	21
323.83642578125	0.0999954254075419	663217	278	3	stim03_sf1_pattern1_cont2_shape2.png	1	110	0	518.767881010834	518.867876436241	0.0999954254075419	stim03_sf1_pattern1_cont2_shape2.png	1	1	2	2	1	1	0	0	0	0	0	0	0	0	0	0	0	0	1	21
324.33642578125	0.0999948388780467	664241	279	12	stim12_sf2_pattern2_cont1_shape1.png	1	111	0	519.267871627031	519.367866465909	0.0999948388780467	stim12_sf2_pattern2_cont1_shape1.png	2	2	1	1	1	4	0	0	0	0	0	0	0	0	0	0	0	0	1	21
324.83642578125	0.0999904402415268	665265	280	8	stim08_sf2_pattern1_cont1_shape1.png	1	112	0	519.7678628297	519.867853269941	0.0999904402415268	stim08_sf2_pattern1_cont1_shape1.png	2	1	1	1	1	3	0	0	0	0	0	0	0	0	0	0	0	0	1	21
325.33642578125	0.0999930794350803	666289	281	10	stim10_sf2_pattern1_cont2_shape1.png	1	113	0	520.267845821538	520.367838900973	0.0999930794350803	stim10_sf2_pattern1_cont2_shape1.png	2	1	2	1	1	3	0	0	0	0	0	0	0	0	0	0	0	0	1	21
325.83642578125	0.0999851618544199	667313	282	6	stim06_sf1_pattern2_cont2_shape1.png	1	114	0	520.767844648537	520.867829810391	0.0999851618544199	stim06_sf1_pattern2_cont2_shape1.png	1	2	2	1	1	4	0	0	0	0	0	0	0	0	0	0	0	0	1	21
326.3359375	0.100014193012612	668336	283	4	stim04_sf1_pattern2_cont1_shape1.png	1	115	0	521.267799195688	521.367813388701	0.100014193012612	stim04_sf1_pattern2_cont1_shape1.png	1	2	1	1	1	4	0	0	0	0	0	0	0	0	0	0	0	0	1	21
326.8359375	0.0999954253784381	669360	284	3	stim03_sf1_pattern1_cont2_shape2.png	1	116	0	521.767793624051	521.867789049429	0.0999954253784381	stim03_sf1_pattern1_cont2_shape2.png	1	1	2	2	1	1	0	0	0	0	0	0	0	0	0	0	0	0	1	21
327.3359375	0.0999875077977777	670384	285	6	stim06_sf1_pattern2_cont2_shape1.png	1	117	0	522.267782480747	522.367769988545	0.0999875077977777	stim06_sf1_pattern2_cont2_shape1.png	1	2	2	1	1	4	0	0	0	0	0	0	0	0	0	0	0	0	1	21
327.8359375	0.0999960118788294	671408	286	14	stim14_sf2_pattern2_cont2_shape1.png	1	118	0	522.76776166042	522.867757672298	0.0999960118788294	stim14_sf2_pattern2_cont2_shape1.png	2	2	2	1	1	4	0	0	0	0	0	0	0	0	0	0	0	0	1	21
328.3359375	0.100041464756941	672432	287	9	stim09_sf2_pattern1_cont1_shape2.png	1	119	0	523.267708583182	523.367750047939	0.100041464756941	stim09_sf2_pattern1_cont1_shape2.png	2	1	1	2	1	1	0	0	0	0	0	0	0	0	0	0	0	0	1	21
328.8359375	0.0999954254075419	673456	288	12	stim12_sf2_pattern2_cont1_shape1.png	1	120	0	523.767760780669	523.867756206077	0.0999954254075419	stim12_sf2_pattern2_cont1_shape1.png	2	2	1	1	1	4	0	0	0	0	0	0	0	0	0	0	0	0	1	21
329.3359375	0.0999904402415268	674480	289	7	stim07_sf1_pattern2_cont2_shape2.png	1	121	0	524.26773849412	524.367728934361	0.0999904402415268	stim07_sf1_pattern2_cont2_shape2.png	1	2	2	2	1	2	0	0	0	0	0	0	0	0	0	0	0	0	1	21
329.8359375	0.0999954253784381	675504	290	0	stim00_sf1_pattern1_cont1_shape1.png	1	122	0	524.767742892785	524.867738318164	0.0999954253784381	stim00_sf1_pattern1_cont1_shape1.png	1	1	1	1	1	3	0	0	0	0	0	0	0	0	0	0	0	0	1	21
330.3359375	0.0999930794350803	676528	291	5	stim05_sf1_pattern2_cont1_shape2.png	1	123	0	525.267734681926	525.367727761361	0.0999930794350803	stim05_sf1_pattern2_cont1_shape2.png	1	2	1	2	1	2	0	0	0	0	0	0	0	0	0	0	0	0	1	21
330.8359375	0.100000117294258	677552	292	15	stim15_sf2_pattern2_cont2_shape2.png	1	124	0	525.767723245401	525.867723362695	0.100000117294258	stim15_sf2_pattern2_cont2_shape2.png	2	2	2	2	1	2	0	0	0	0	0	0	0	0	0	0	0	0	1	21
331.3359375	0.099993372685276	678576	293	11	stim11_sf2_pattern1_cont2_shape2.png	1	125	0	526.267710342654	526.367703715339	0.099993372685276	stim11_sf2_pattern1_cont2_shape2.png	2	1	2	2	1	1	0	0	0	0	0	0	0	0	0	0	0	0	1	21
331.8359375	0.0999942524067592	679600	294	8	stim08_sf2_pattern1_cont1_shape1.png	1	126	0	526.767703304795	526.867697557202	0.0999942524067592	stim08_sf2_pattern1_cont1_shape1.png	2	1	1	1	1	3	0	0	0	0	0	0	0	0	0	0	0	0	1	21
332.3359375	0.0999710861069616	680624	295	13	stim13_sf2_pattern2_cont1_shape2.png	1	127	0	527.267684537161	527.367655623268	0.0999710861069616	stim13_sf2_pattern2_cont1_shape2.png	2	2	1	2	1	2	0	0	0	0	0	0	0	0	0	0	0	0	1	21
332.8359375	0.0999951321282424	681648	296	1	stim01_sf1_pattern1_cont1_shape2.png	1	128	0	527.767673687136	527.867668819265	0.0999951321282424	stim01_sf1_pattern1_cont1_shape2.png	1	1	1	2	1	1	0	0	0	0	0	0	0	0	0	0	0	0	1	21
333.3359375	0.0999746050511021	682672	297	4	stim04_sf1_pattern2_cont1_shape1.png	1	129	0	528.267658438417	528.367633043468	0.0999746050511021	stim04_sf1_pattern2_cont1_shape1.png	1	2	1	1	1	4	0	0	0	0	0	0	0	0	0	0	0	0	1	21
333.8359375	0.0999942524067592	683696	298	10	stim10_sf2_pattern1_cont2_shape1.png	1	130	0	528.767648174864	528.867642427271	0.0999942524067592	stim10_sf2_pattern1_cont2_shape1.png	2	1	2	1	1	3	0	0	0	0	0	0	0	0	0	0	0	0	1	21
334.3359375	0.0999930794350803	684720	299	2	stim02_sf1_pattern1_cont2_shape1.png	1	131	0	529.267637911311	529.367630990746	0.0999930794350803	stim02_sf1_pattern1_cont2_shape1.png	1	1	2	1	1	3	0	0	0	0	0	0	0	0	0	0	0	0	1	21
334.8359375	0.0999980645719916	685744	300	15	stim15_sf2_pattern2_cont2_shape2.png	1	132	0	529.767623835593	529.867621900165	0.0999980645719916	stim15_sf2_pattern2_cont2_shape2.png	2	2	2	2	1	2	0	0	0	0	0	0	0	0	0	0	0	0	1	21
335.3359375	0.0999834023823496	686768	301	12	stim12_sf2_pattern2_cont1_shape1.png	1	133	0	530.267609173374	530.367592575756	0.0999834023823496	stim12_sf2_pattern2_cont1_shape1.png	2	2	1	1	1	4	0	0	0	0	0	0	0	0	0	0	0	0	1	21
335.8359375	0.0999971848505083	687792	302	14	stim14_sf2_pattern2_cont2_shape1.png	1	134	0	530.767602135515	530.867599320365	0.0999971848505083	stim14_sf2_pattern2_cont2_shape1.png	2	2	2	1	1	4	0	0	0	0	0	0	0	0	0	0	0	0	1	21
336.3359375	0.099997478100704	688816	303	2	stim02_sf1_pattern1_cont2_shape1.png	1	135	0	531.267588646268	531.367586124368	0.099997478100704	stim02_sf1_pattern1_cont2_shape1.png	1	1	2	1	1	3	0	0	0	0	0	0	0	0	0	0	0	0	1	21
336.8359375	0.099987214547582	689840	304	8	stim08_sf2_pattern1_cont1_shape1.png	1	136	0	531.767586007074	531.867573221622	0.099987214547582	stim08_sf2_pattern1_cont1_shape1.png	2	1	1	1	1	3	0	0	0	0	0	0	0	0	0	0	0	0	1	21
337.3359375	0.100047036394244	690864	305	11	stim11_sf2_pattern1_cont2_shape2.png	1	137	0	532.267566066468	532.367613102862	0.100047036394244	stim11_sf2_pattern1_cont2_shape2.png	2	1	2	2	1	1	0	0	0	0	0	0	0	0	0	0	0	0	1	21
337.8359375	0.0999942524067592	691888	306	3	stim03_sf1_pattern1_cont2_shape2.png	1	138	0	532.767556096165	532.867550348572	0.0999942524067592	stim03_sf1_pattern1_cont2_shape2.png	1	1	2	2	1	1	0	0	0	0	0	0	0	0	0	0	0	0	1	21
338.3359375	0.0999957186577376	692912	307	13	stim13_sf2_pattern2_cont1_shape2.png	1	139	0	533.26754348664	533.367539205297	0.0999957186577376	stim13_sf2_pattern2_cont1_shape2.png	2	2	1	2	1	2	0	0	0	0	0	0	0	0	0	0	0	0	1	21
338.8359375	0.100002756516915	693936	308	5	stim05_sf1_pattern2_cont1_shape2.png	1	140	0	533.767530583893	533.86753334041	0.100002756516915	stim05_sf1_pattern2_cont1_shape2.png	1	2	1	2	1	2	0	0	0	0	0	0	0	0	0	0	0	0	1	21
339.3359375	0.10001829842804	694960	309	7	stim07_sf1_pattern2_cont2_shape2.png	1	141	0	534.267496860819	534.367515159247	0.10001829842804	stim07_sf1_pattern2_cont2_shape2.png	1	2	2	2	1	2	0	0	0	0	0	0	0	0	0	0	0	0	1	21
339.8359375	0.0999936659063678	695984	310	1	stim01_sf1_pattern1_cont1_shape2.png	1	142	0	534.767510056816	534.867503722722	0.0999936659063678	stim01_sf1_pattern1_cont1_shape2.png	1	1	1	2	1	1	0	0	0	0	0	0	0	0	0	0	0	0	1	21
340.3359375	0.0999983578221872	697008	311	6	stim06_sf1_pattern2_cont2_shape1.png	1	143	0	535.267496567569	535.367494925391	0.0999983578221872	stim06_sf1_pattern2_cont2_shape1.png	1	2	2	1	1	4	0	0	0	0	0	0	0	0	0	0	0	0	1	21
340.8359375	0.099997478100704	698032	312	9	stim09_sf2_pattern1_cont1_shape2.png	1	144	0	535.767482785071	535.867480263172	0.099997478100704	stim09_sf2_pattern1_cont1_shape2.png	2	1	1	2	1	1	0	0	0	0	0	0	0	0	0	0	0	0	1	21
341.3359375	0.0999930794350803	699056	313	10	stim10_sf2_pattern1_cont2_shape1.png	1	145	0	536.267480439128	536.367473518563	0.0999930794350803	stim10_sf2_pattern1_cont2_shape1.png	2	1	2	1	1	3	0	0	0	0	0	0	0	0	0	0	0	0	1	21
341.8359375	0.0999787104665302	700080	314	4	stim04_sf1_pattern2_cont1_shape1.png	1	146	0	536.767462844466	536.867441554932	0.0999787104665302	stim04_sf1_pattern2_cont1_shape1.png	1	2	1	1	1	4	0	0	0	0	0	0	0	0	0	0	0	0	1	21
342.3359375	0.099977830745047	701104	315	0	stim00_sf1_pattern1_cont1_shape1.png	1	147	0	537.267451114691	537.367428945436	0.099977830745047	stim00_sf1_pattern1_cont1_shape1.png	1	1	1	1	1	3	0	0	0	0	0	0	0	0	0	0	0	0	1	21
342.8359375	0.0999678604130168	702128	316	15	stim15_sf2_pattern2_cont2_shape2.png	1	148	0	537.76744290386	537.867410764273	0.0999678604130168	stim15_sf2_pattern2_cont2_shape2.png	2	2	2	2	1	2	0	0	0	0	0	0	0	0	0	0	0	0	1	21
343.3359375	0.099977830745047	703152	317	11	stim11_sf2_pattern1_cont2_shape2.png	1	149	0	538.267420910532	538.367398741277	0.099977830745047	stim11_sf2_pattern1_cont2_shape2.png	2	1	2	2	1	1	0	0	0	0	0	0	0	0	0	0	0	0	1	21
343.83544921875	0.099993372685276	704175	318	3	stim03_sf1_pattern1_cont2_shape2.png	1	150	0	538.767413286172	538.867406658857	0.099993372685276	stim03_sf1_pattern1_cont2_shape2.png	1	1	2	2	1	1	0	0	0	0	0	0	0	0	0	0	0	0	1	21
344.34423828125	0.100004222709686	705217	319	5	stim05_sf1_pattern2_cont1_shape2.png	1	151	0	539.275707994355	539.375712217065	0.100004222709686	stim05_sf1_pattern2_cont1_shape2.png	1	2	1	2	1	2	0	0	0	0	0	0	0	0	0	0	0	0	1	21
344.84375	0.0999599428323563	706240	320	0	stim00_sf1_pattern1_cont1_shape1.png	1	152	0	539.775760778342	539.875720721175	0.0999599428323563	stim00_sf1_pattern1_cont1_shape1.png	1	1	1	1	1	3	0	0	0	0	0	0	0	0	0	0	0	0	1	21
345.34375	0.100002463266719	707264	321	14	stim14_sf2_pattern2_cont2_shape1.png	1	153	0	540.275709460577	540.375711923843	0.100002463266719	stim14_sf2_pattern2_cont2_shape1.png	2	2	2	1	1	4	0	0	0	0	0	0	0	0	0	0	0	0	1	21
345.84375	0.100001290265936	708288	322	10	stim10_sf2_pattern1_cont2_shape1.png	1	154	0	540.775702715968	540.875704006234	0.100001290265936	stim10_sf2_pattern1_cont2_shape1.png	2	1	2	1	1	3	0	0	0	0	0	0	0	0	0	0	0	0	1	21
346.34375	0.10000568893156	709312	323	6	stim06_sf1_pattern2_cont2_shape1.png	1	155	0	541.275685121305	541.375690810237	0.10000568893156	stim06_sf1_pattern2_cont2_shape1.png	1	2	2	1	1	4	0	0	0	0	0	0	0	0	0	0	0	0	1	21
346.84375	0.0999919064634014	710336	324	13	stim13_sf2_pattern2_cont1_shape2.png	1	156	0	541.775659902283	541.875651808747	0.0999919064634014	stim13_sf2_pattern2_cont1_shape2.png	2	2	1	2	1	2	0	0	0	0	0	0	0	0	0	0	0	0	1	21
347.34375	0.0999816428811755	711360	325	7	stim07_sf1_pattern2_cont2_shape2.png	1	157	0	542.27564230765	542.375623950531	0.0999816428811755	stim07_sf1_pattern2_cont2_shape2.png	1	2	2	2	1	2	0	0	0	0	0	0	0	0	0	0	0	0	1	21
347.84375	0.0999951321573462	712384	326	8	stim08_sf2_pattern1_cont1_shape1.png	1	158	0	542.775639668427	542.875634800585	0.0999951321573462	stim08_sf2_pattern1_cont1_shape1.png	2	1	1	1	1	3	0	0	0	0	0	0	0	0	0	0	0	0	1	21
348.34375	0.0999640482477844	713408	327	12	stim12_sf2_pattern2_cont1_shape1.png	1	159	0	543.275651398202	543.37561544645	0.0999640482477844	stim12_sf2_pattern2_cont1_shape1.png	2	2	1	1	1	4	0	0	0	0	0	0	0	0	0	0	0	0	1	21
348.84375	0.0999919064342976	714432	328	4	stim04_sf1_pattern2_cont1_shape1.png	1	160	0	543.775611810241	543.875603716675	0.0999919064342976	stim04_sf1_pattern2_cont1_shape1.png	1	2	1	1	1	4	0	0	0	0	0	0	0	0	0	0	0	0	1	21
349.34375	0.100011260597967	715456	329	1	stim01_sf1_pattern1_cont1_shape2.png	1	161	0	544.275568703306	544.375579963904	0.100011260597967	stim01_sf1_pattern1_cont1_shape2.png	1	1	1	2	1	1	0	0	0	0	0	0	0	0	0	0	0	0	1	21
349.84375	0.0999930794350803	716480	330	9	stim09_sf2_pattern1_cont1_shape2.png	1	162	0	544.775586884469	544.875579963904	0.0999930794350803	stim09_sf2_pattern1_cont1_shape2.png	2	1	1	2	1	1	0	0	0	0	0	0	0	0	0	0	0	0	1	21
350.34375	0.100001876737224	717504	331	2	stim02_sf1_pattern1_cont2_shape1.png	1	163	0	545.27559597505	545.375597851787	0.100001876737224	stim02_sf1_pattern1_cont2_shape1.png	1	1	2	1	1	3	0	0	0	0	0	0	0	0	0	0	0	0	1	21
367.70166015625	0.0999816429102793	753053	332	7	stim07_sf1_pattern2_cont2_shape2.png	2	0	0	562.63351559444	562.73349723735	0.0999816429102793	stim07_sf1_pattern2_cont2_shape2.png	1	2	2	2	1	2	0	0	0	0	0	0	0	0	0	0	0	0	1	21
368.20166015625	0.0999798834382091	754077	333	12	stim12_sf2_pattern2_cont1_shape1.png	2	1	0	563.133511782245	563.233491665684	0.0999798834382091	stim12_sf2_pattern2_cont1_shape1.png	2	2	1	1	1	4	0	0	0	0	0	0	0	0	0	0	0	0	1	21
368.70166015625	0.100015952484682	755101	334	2	stim02_sf1_pattern1_cont2_shape1.png	2	2	0	563.633486563253	563.733502515737	0.100015952484682	stim02_sf1_pattern1_cont2_shape1.png	1	1	2	1	1	3	0	0	0	0	0	0	0	0	0	0	0	0	1	21
369.20166015625	0.0999965983792208	756125	335	15	stim15_sf2_pattern2_cont2_shape2.png	2	3	0	564.133488615946	564.233485214325	0.0999965983792208	stim15_sf2_pattern2_cont2_shape2.png	2	2	2	2	1	2	0	0	0	0	0	0	0	0	0	0	0	0	1	21
369.70166015625	0.100002170016523	757149	336	14	stim14_sf2_pattern2_cont2_shape1.png	2	4	0	564.633455772593	564.73345794261	0.100002170016523	stim14_sf2_pattern2_cont2_shape1.png	2	2	2	1	1	4	0	0	0	0	0	0	0	0	0	0	0	0	1	21
370.20166015625	0.0999924929346889	758173	337	9	stim09_sf2_pattern1_cont1_shape2.png	2	5	0	565.13344609554	565.233438588475	0.0999924929346889	stim09_sf2_pattern1_cont1_shape2.png	2	1	1	2	1	1	0	0	0	0	0	0	0	0	0	0	0	0	1	21
370.70166015625	0.0999951321573462	759197	338	10	stim10_sf2_pattern1_cont2_shape1.png	2	6	0	565.633455186093	565.73345031825	0.0999951321573462	stim10_sf2_pattern1_cont2_shape1.png	2	1	2	1	1	3	0	0	0	0	0	0	0	0	0	0	0	0	1	21
371.20166015625	0.0999828158819582	760221	339	4	stim04_sf1_pattern2_cont1_shape1.png	2	7	0	566.133462517202	566.233445333084	0.0999828158819582	stim04_sf1_pattern2_cont1_shape1.png	1	2	1	1	1	4	0	0	0	0	0	0	0	0	0	0	0	0	1	21
371.70166015625	0.0999464536143932	761245	340	1	stim01_sf1_pattern1_cont1_shape2.png	2	8	0	566.633459584758	566.733406038373	0.0999464536143932	stim01_sf1_pattern1_cont1_shape2.png	1	1	1	2	1	1	0	0	0	0	0	0	0	0	0	0	0	0	1	21
372.20166015625	0.10000568893156	762269	341	8	stim08_sf2_pattern1_cont1_shape1.png	2	9	0	567.133432606293	567.233438295225	0.10000568893156	stim08_sf2_pattern1_cont1_shape1.png	2	1	1	1	1	3	0	0	0	0	0	0	0	0	0	0	0	0	1	21
372.70166015625	0.0999971848505083	763293	342	6	stim06_sf1_pattern2_cont2_shape1.png	2	10	0	567.633419703547	567.733416888397	0.0999971848505083	stim06_sf1_pattern2_cont2_shape1.png	1	2	2	1	1	4	0	0	0	0	0	0	0	0	0	0	0	0	1	21
373.20166015625	0.0999957186286338	764317	343	3	stim03_sf1_pattern1_cont2_shape2.png	2	11	0	568.133408560272	568.233404278901	0.0999957186286338	stim03_sf1_pattern1_cont2_shape2.png	1	1	2	2	1	1	0	0	0	0	0	0	0	0	0	0	0	0	1	21
373.70166015625	0.099993372685276	765341	344	5	stim05_sf1_pattern2_cont1_shape2.png	2	12	0	568.63339096561	568.733384338295	0.099993372685276	stim05_sf1_pattern2_cont1_shape2.png	1	2	1	2	1	2	0	0	0	0	0	0	0	0	0	0	0	0	1	21
374.20166015625	0.0999957186577376	766365	345	11	stim11_sf2_pattern1_cont2_shape2.png	2	13	0	569.133379822306	569.233375540964	0.0999957186577376	stim11_sf2_pattern1_cont2_shape2.png	2	1	2	2	1	1	0	0	0	0	0	0	0	0	0	0	0	0	1	21
374.70166015625	0.0999948388780467	767389	346	13	stim13_sf2_pattern2_cont1_shape2.png	2	14	0	569.633365160116	569.733359998994	0.0999948388780467	stim13_sf2_pattern2_cont1_shape2.png	2	2	1	2	1	2	0	0	0	0	0	0	0	0	0	0	0	0	1	21
375.20166015625	0.0999927861848846	768413	347	0	stim00_sf1_pattern1_cont1_shape1.png	2	15	0	570.133356949256	570.233349735441	0.0999927861848846	stim00_sf1_pattern1_cont1_shape1.png	1	1	1	1	1	3	0	0	0	0	0	0	0	0	0	0	0	0	1	21
375.70166015625	0.0999977713508997	769437	348	3	stim03_sf1_pattern1_cont2_shape2.png	2	16	0	570.633340820816	570.733338592167	0.0999977713508997	stim03_sf1_pattern1_cont2_shape2.png	1	1	2	2	1	1	0	0	0	0	0	0	0	0	0	0	0	0	1	21
376.20166015625	0.099977830745047	770461	349	5	stim05_sf1_pattern2_cont1_shape2.png	2	17	0	571.133327038347	571.233304869093	0.099977830745047	stim05_sf1_pattern2_cont1_shape2.png	1	2	1	2	1	2	0	0	0	0	0	0	0	0	0	0	0	0	1	21
376.70166015625	0.0999980646010954	771485	350	11	stim11_sf2_pattern1_cont2_shape2.png	2	18	0	571.633316774794	571.733314839395	0.0999980646010954	stim11_sf2_pattern1_cont2_shape2.png	2	1	2	2	1	1	0	0	0	0	0	0	0	0	0	0	0	0	1	21
377.201171875	0.0999939591565635	772508	351	7	stim07_sf1_pattern2_cont2_shape2.png	2	19	0	572.133308857214	572.23330281637	0.0999939591565635	stim07_sf1_pattern2_cont2_shape2.png	1	2	2	2	1	2	0	0	0	0	0	0	0	0	0	0	0	0	1	21
377.701171875	0.0999957186286338	773532	352	2	stim02_sf1_pattern1_cont2_shape1.png	2	20	0	572.633294781466	572.733290500095	0.0999957186286338	stim02_sf1_pattern1_cont2_shape1.png	1	1	2	1	1	3	0	0	0	0	0	0	0	0	0	0	0	0	1	21
378.201171875	0.100002463237615	774556	353	0	stim00_sf1_pattern1_cont1_shape1.png	2	21	0	573.133279532776	573.233281996014	0.100002463237615	stim00_sf1_pattern1_cont1_shape1.png	1	1	1	1	1	3	0	0	0	0	0	0	0	0	0	0	0	0	1	21
378.701171875	0.0999951321573462	775580	354	14	stim14_sf2_pattern2_cont2_shape1.png	2	22	0	573.63327425436	573.733269386517	0.0999951321573462	stim14_sf2_pattern2_cont2_shape1.png	2	2	2	1	1	4	0	0	0	0	0	0	0	0	0	0	0	0	1	21
379.201171875	0.0999954254075419	776604	355	1	stim01_sf1_pattern1_cont1_shape2.png	2	23	0	574.133259885391	574.233255310799	0.0999954254075419	stim01_sf1_pattern1_cont1_shape2.png	1	1	1	2	1	1	0	0	0	0	0	0	0	0	0	0	0	0	1	21
379.701171875	0.100026216066908	777628	356	13	stim13_sf2_pattern2_cont1_shape2.png	2	24	0	574.63322792176	574.733254137827	0.100026216066908	stim13_sf2_pattern2_cont1_shape2.png	2	2	1	2	1	2	0	0	0	0	0	0	0	0	0	0	0	0	1	21
380.201171875	0.100016538985074	778652	357	15	stim15_sf2_pattern2_cont2_shape2.png	2	25	0	575.133215019014	575.233231557999	0.100016538985074	stim15_sf2_pattern2_cont2_shape2.png	2	2	2	2	1	2	0	0	0	0	0	0	0	0	0	0	0	0	1	21
380.701171875	0.100001290265936	779676	358	9	stim09_sf2_pattern1_cont1_shape2.png	2	26	0	575.633221470402	575.733222760668	0.100001290265936	stim09_sf2_pattern1_cont1_shape2.png	2	1	1	2	1	1	0	0	0	0	0	0	0	0	0	0	0	0	1	21
381.201171875	0.0999904402415268	780700	359	6	stim06_sf1_pattern2_cont2_shape1.png	2	27	0	576.133203582489	576.23319402273	0.0999904402415268	stim06_sf1_pattern2_cont2_shape1.png	1	2	2	1	1	4	0	0	0	0	0	0	0	0	0	0	0	0	1	21
381.701171875	0.0999924929346889	781724	360	4	stim04_sf1_pattern2_cont1_shape1.png	2	28	1	576.633205341961	576.733197834896	0.0999924929346889	stim04_sf1_pattern2_cont1_shape1.png	1	2	1	1	1	4	0	0	0	0	0	0	0	0	0	0	0	0	1	21
382.201171875	0.0999916132132057	782748	361	4	stim04_sf1_pattern2_cont1_shape1.png	2	29	1	577.133191559493	577.233183172706	0.0999916132132057	stim04_sf1_pattern2_cont1_shape1.png	1	2	1	1	1	4	0	0	0	0	0	0	0	0	0	0	0	0	1	21
382.701171875	0.0999599428323563	783772	362	5	stim05_sf1_pattern2_cont1_shape2.png	2	30	2	577.63321237982	577.733172322653	0.0999599428323563	stim05_sf1_pattern2_cont1_shape2.png	1	2	1	2	1	2	0	0	0	0	0	0	0	0	0	0	0	0	1	21
383.201171875	0.0999942524067592	784796	363	13	stim13_sf2_pattern2_cont1_shape2.png	2	31	2	578.133143467421	578.233137719828	0.0999942524067592	stim13_sf2_pattern2_cont1_shape2.png	2	2	1	2	1	2	0	0	0	0	0	0	0	0	0	0	0	0	1	21
383.701171875	0.0999939591565635	785820	364	8	stim08_sf2_pattern1_cont1_shape1.png	2	32	0	578.633139362006	578.733133321162	0.0999939591565635	stim08_sf2_pattern1_cont1_shape1.png	2	1	1	1	1	3	0	0	0	0	0	0	0	0	0	0	0	0	1	21
384.201171875	0.0999977713508997	786844	365	12	stim12_sf2_pattern2_cont1_shape1.png	2	33	0	579.133146986336	579.233144757687	0.0999977713508997	stim12_sf2_pattern2_cont1_shape1.png	2	2	1	1	1	4	0	0	0	0	0	0	0	0	0	0	0	0	1	21
384.701171875	0.100014193012612	787868	366	10	stim10_sf2_pattern1_cont2_shape1.png	2	34	0	579.633110330818	579.733124523831	0.100014193012612	stim10_sf2_pattern1_cont2_shape1.png	2	1	2	1	1	3	0	0	0	0	0	0	0	0	0	0	0	0	1	21
385.201171875	0.100023283594055	788892	367	4	stim04_sf1_pattern2_cont1_shape1.png	2	35	0	580.133098601043	580.233121884638	0.100023283594055	stim04_sf1_pattern2_cont1_shape1.png	1	2	1	1	1	4	0	0	0	0	0	0	0	0	0	0	0	0	1	21
385.701171875	0.099963461747393	789916	368	2	stim02_sf1_pattern1_cont2_shape1.png	2	36	0	580.633117368678	580.733080830425	0.099963461747393	stim02_sf1_pattern1_cont2_shape1.png	1	1	2	1	1	3	0	0	0	0	0	0	0	0	0	0	0	0	1	21
386.201171875	0.0999954253784381	790940	369	12	stim12_sf2_pattern2_cont1_shape1.png	2	37	0	581.13309596185	581.233091387228	0.0999954253784381	stim12_sf2_pattern2_cont1_shape1.png	2	2	1	1	1	4	0	0	0	0	0	0	0	0	0	0	0	0	1	21
386.701171875	0.0999954253784381	791964	370	13	stim13_sf2_pattern2_cont1_shape2.png	2	38	0	581.633091269934	581.733086695313	0.0999954253784381	stim13_sf2_pattern2_cont1_shape2.png	2	2	1	2	1	2	0	0	0	0	0	0	0	0	0	0	0	0	1	21
387.201171875	0.0999845753540285	792988	371	10	stim10_sf2_pattern1_cont2_shape1.png	2	39	0	582.133084818546	582.2330693939	0.0999845753540285	stim10_sf2_pattern1_cont2_shape1.png	2	1	2	1	1	3	0	0	0	0	0	0	0	0	0	0	0	0	1	21
387.701171875	0.0999672739417292	794012	372	11	stim11_sf2_pattern1_cont2_shape2.png	2	40	0	582.633066930663	582.733034204604	0.0999672739417292	stim11_sf2_pattern1_cont2_shape2.png	2	1	2	2	1	1	0	0	0	0	0	0	0	0	0	0	0	0	1	21
388.201171875	0.0999760712438729	795036	373	9	stim09_sf2_pattern1_cont1_shape2.png	2	41	0	583.133081592881	583.233057664125	0.0999760712438729	stim09_sf2_pattern1_cont1_shape2.png	2	1	1	2	1	1	0	0	0	0	0	0	0	0	0	0	0	0	1	21
388.701171875	0.0999936659063678	796060	374	6	stim06_sf1_pattern2_cont2_shape1.png	2	42	0	583.633050802222	583.733044468128	0.0999936659063678	stim06_sf1_pattern2_cont2_shape1.png	1	2	2	1	1	4	0	0	0	0	0	0	0	0	0	0	0	0	1	21
389.201171875	0.0999951321573462	797084	375	8	stim08_sf2_pattern1_cont1_shape1.png	2	43	0	584.133028515644	584.233023647801	0.0999951321573462	stim08_sf2_pattern1_cont1_shape1.png	2	1	1	1	1	3	0	0	0	0	0	0	0	0	0	0	0	0	1	21
389.701171875	0.099997478100704	798108	376	4	stim04_sf1_pattern2_cont1_shape1.png	2	44	0	584.633023237257	584.733020715357	0.099997478100704	stim04_sf1_pattern2_cont1_shape1.png	1	2	1	1	1	4	0	0	0	0	0	0	0	0	0	0	0	0	1	21
390.201171875	0.0999930794350803	799132	377	15	stim15_sf2_pattern2_cont2_shape2.png	2	45	0	585.133005642594	585.232998722029	0.0999930794350803	stim15_sf2_pattern2_cont2_shape2.png	2	2	2	2	1	2	0	0	0	0	0	0	0	0	0	0	0	0	1	21
390.701171875	0.0999977713508997	800156	378	0	stim00_sf1_pattern1_cont1_shape1.png	2	46	0	585.632992739847	585.732990511198	0.0999977713508997	stim00_sf1_pattern1_cont1_shape1.png	1	1	1	1	1	3	0	0	0	0	0	0	0	0	0	0	0	0	1	21
391.201171875	0.0999936659354717	801180	379	3	stim03_sf1_pattern1_cont2_shape2.png	2	47	0	586.132984235766	586.232977901702	0.0999936659354717	stim03_sf1_pattern1_cont2_shape2.png	1	1	2	2	1	1	0	0	0	0	0	0	0	0	0	0	0	0	1	21
391.701171875	0.099997478100704	802204	380	1	stim01_sf1_pattern1_cont1_shape2.png	2	48	0	586.63297162627	586.732969104371	0.099997478100704	stim01_sf1_pattern1_cont1_shape2.png	1	1	1	2	1	1	0	0	0	0	0	0	0	0	0	0	0	0	1	21
392.201171875	0.0999968916294165	803228	381	7	stim07_sf1_pattern2_cont2_shape2.png	2	49	0	587.132957843773	587.232954735402	0.0999968916294165	stim07_sf1_pattern2_cont2_shape2.png	1	2	2	2	1	2	0	0	0	0	0	0	0	0	0	0	0	0	1	21
392.701171875	0.0999954254075419	804252	382	14	stim14_sf2_pattern2_cont2_shape1.png	2	50	0	587.632949046441	587.732944471849	0.0999954254075419	stim14_sf2_pattern2_cont2_shape1.png	2	2	2	1	1	4	0	0	0	0	0	0	0	0	0	0	0	0	1	21
393.201171875	0.0999883875192609	805276	383	5	stim05_sf1_pattern2_cont1_shape2.png	2	51	0	588.13294054236	588.23292892988	0.0999883875192609	stim05_sf1_pattern2_cont1_shape2.png	1	2	1	2	1	2	0	0	0	0	0	0	0	0	0	0	0	0	1	21
393.701171875	0.0999960118788294	806300	384	1	stim01_sf1_pattern1_cont1_shape2.png	2	52	0	588.632924120669	588.732920132548	0.0999960118788294	stim01_sf1_pattern1_cont1_shape2.png	1	1	1	2	1	1	0	0	0	0	0	0	0	0	0	0	0	0	1	21
394.201171875	0.100019178178627	807324	385	0	stim00_sf1_pattern1_cont1_shape1.png	2	53	0	589.132888638123	589.232907816302	0.100019178178627	stim00_sf1_pattern1_cont1_shape1.png	1	1	1	1	1	3	0	0	0	0	0	0	0	0	0	0	0	0	1	21
394.70068359375	0.100003049738007	808347	386	13	stim13_sf2_pattern2_cont1_shape2.png	2	54	0	589.632898315176	589.732901364914	0.100003049738007	stim13_sf2_pattern2_cont1_shape2.png	2	2	1	2	1	2	0	0	0	0	0	0	0	0	0	0	0	0	1	21
395.20068359375	0.100000117294258	809371	387	11	stim11_sf2_pattern1_cont2_shape2.png	2	55	0	590.132886878651	590.232886995946	0.100000117294258	stim11_sf2_pattern1_cont2_shape2.png	2	1	2	2	1	1	0	0	0	0	0	0	0	0	0	0	0	0	1	21
395.70068359375	0.0999980645719916	810395	388	7	stim07_sf1_pattern2_cont2_shape2.png	2	56	0	590.632877494849	590.732875559421	0.0999980645719916	stim07_sf1_pattern2_cont2_shape2.png	1	2	2	2	1	2	0	0	0	0	0	0	0	0	0	0	0	0	1	21
396.20068359375	0.0999927862139884	811419	389	9	stim09_sf2_pattern1_cont1_shape2.png	2	57	0	591.132867817767	591.232860603981	0.0999927862139884	stim09_sf2_pattern1_cont1_shape2.png	2	1	1	2	1	1	0	0	0	0	0	0	0	0	0	0	0	0	1	21
396.70068359375	0.100019471428823	812443	390	5	stim05_sf1_pattern2_cont1_shape2.png	2	58	0	591.632833214942	591.732852686371	0.100019471428823	stim05_sf1_pattern2_cont1_shape2.png	1	2	1	2	1	2	0	0	0	0	0	0	0	0	0	0	0	0	1	21
397.20068359375	0.0999954254075419	813467	391	12	stim12_sf2_pattern2_cont1_shape1.png	2	59	0	592.132844651467	592.232840076875	0.0999954254075419	stim12_sf2_pattern2_cont1_shape1.png	2	2	1	1	1	4	0	0	0	0	0	0	0	0	0	0	0	0	1	21
397.70068359375	0.0999968916003127	814491	392	8	stim08_sf2_pattern1_cont1_shape1.png	2	60	0	592.632828523056	592.732825414656	0.0999968916003127	stim08_sf2_pattern1_cont1_shape1.png	2	1	1	1	1	3	0	0	0	0	0	0	0	0	0	0	0	0	1	21
398.20068359375	0.0999875077977777	815515	393	4	stim04_sf1_pattern2_cont1_shape1.png	2	61	0	593.13282383114	593.232811338938	0.0999875077977777	stim04_sf1_pattern2_cont1_shape1.png	1	2	1	1	1	4	0	0	0	0	0	0	0	0	0	0	0	0	1	21
398.70068359375	0.0999822293815669	816539	394	3	stim03_sf1_pattern1_cont2_shape2.png	2	62	0	593.632807702699	593.732789932081	0.0999822293815669	stim03_sf1_pattern1_cont2_shape2.png	1	1	2	2	1	1	0	0	0	0	0	0	0	0	0	0	0	0	1	21
399.20068359375	0.099997478100704	817563	395	2	stim02_sf1_pattern1_cont2_shape1.png	2	63	0	594.13277749854	594.232774976641	0.099997478100704	stim02_sf1_pattern1_cont2_shape1.png	1	1	2	1	1	3	0	0	0	0	0	0	0	0	0	0	0	0	1	21
399.70068359375	0.0999968916003127	818587	396	6	stim06_sf1_pattern2_cont2_shape1.png	2	64	0	594.632790694537	594.732787586137	0.0999968916003127	stim06_sf1_pattern2_cont2_shape1.png	1	2	2	1	1	4	0	0	0	0	0	0	0	0	0	0	0	0	1	21
400.20068359375	0.10001214031945	819611	397	10	stim10_sf2_pattern1_cont2_shape1.png	2	65	0	595.132732045662	595.232744185982	0.10001214031945	stim10_sf2_pattern1_cont2_shape1.png	2	1	2	1	1	3	0	0	0	0	0	0	0	0	0	0	0	0	1	21
400.70068359375	0.0999581833602861	820635	398	15	stim15_sf2_pattern2_cont2_shape2.png	2	66	0	595.632756971434	595.732715154794	0.0999581833602861	stim15_sf2_pattern2_cont2_shape2.png	2	2	2	2	1	2	0	0	0	0	0	0	0	0	0	0	0	0	1	21
401.20068359375	0.100011847069254	821659	399	14	stim14_sf2_pattern2_cont2_shape1.png	2	67	0	596.132710638834	596.232722485904	0.100011847069254	stim14_sf2_pattern2_cont2_shape1.png	2	2	2	1	1	4	0	0	0	0	0	0	0	0	0	0	0	0	1	21
401.70068359375	0.100025629537413	822683	400	4	stim04_sf1_pattern2_cont1_shape1.png	2	68	0	596.632735564606	596.732761194144	0.100025629537413	stim04_sf1_pattern2_cont1_shape1.png	1	2	1	1	1	4	0	0	0	0	0	0	0	0	0	0	0	0	1	21
402.20068359375	0.0999804699386004	823707	401	11	stim11_sf2_pattern1_cont2_shape2.png	2	69	0	597.132750520046	597.232730989985	0.0999804699386004	stim11_sf2_pattern1_cont2_shape2.png	2	1	2	2	1	1	0	0	0	0	0	0	0	0	0	0	0	0	1	21
402.70068359375	0.100004809210077	824731	402	12	stim12_sf2_pattern2_cont1_shape1.png	2	70	0	597.632720315887	597.732725125097	0.100004809210077	stim12_sf2_pattern2_cont1_shape1.png	2	2	1	1	1	4	0	0	0	0	0	0	0	0	0	0	0	0	1	21
403.20068359375	0.0999939591565635	825755	403	2	stim02_sf1_pattern1_cont2_shape1.png	2	71	0	598.132706240169	598.232700199325	0.0999939591565635	stim02_sf1_pattern1_cont2_shape1.png	1	1	2	1	1	3	0	0	0	0	0	0	0	0	0	0	0	0	1	21
403.70068359375	0.100025336316321	826779	404	15	stim15_sf2_pattern2_cont2_shape2.png	2	72	0	598.632704773947	598.732730110263	0.100025336316321	stim15_sf2_pattern2_cont2_shape2.png	2	2	2	2	1	2	0	0	0	0	0	0	0	0	0	0	0	0	1	21
404.20068359375	0.0999863348260988	827803	405	0	stim00_sf1_pattern1_cont1_shape1.png	2	73	0	599.1326912847	599.232677619526	0.0999863348260988	stim00_sf1_pattern1_cont1_shape1.png	1	1	1	1	1	3	0	0	0	0	0	0	0	0	0	0	0	0	1	21
404.70068359375	0.0999960118788294	828827	406	9	stim09_sf2_pattern1_cont1_shape2.png	2	74	0	599.632672223845	599.732668235723	0.0999960118788294	stim09_sf2_pattern1_cont1_shape2.png	2	1	1	2	1	1	0	0	0	0	0	0	0	0	0	0	0	0	1	21
405.20068359375	0.10000568893156	829851	407	14	stim14_sf2_pattern2_cont2_shape1.png	2	75	0	600.132661373791	600.232667062723	0.10000568893156	stim14_sf2_pattern2_cont2_shape1.png	2	2	2	1	1	4	0	0	0	0	0	0	0	0	0	0	0	0	1	21
405.70068359375	0.0999942524067592	830875	408	8	stim08_sf2_pattern1_cont1_shape1.png	2	76	0	600.632647298073	600.732641550479	0.0999942524067592	stim08_sf2_pattern1_cont1_shape1.png	2	1	1	1	1	3	0	0	0	0	0	0	0	0	0	0	0	0	1	21
406.20068359375	0.0999919064634014	831899	409	6	stim06_sf1_pattern2_cont2_shape1.png	2	77	0	601.132636448019	601.232628354483	0.0999919064634014	stim06_sf1_pattern2_cont2_shape1.png	1	2	2	1	1	4	0	0	0	0	0	0	0	0	0	0	0	0	1	21
406.70068359375	0.0999927861848846	832923	410	5	stim05_sf1_pattern2_cont1_shape2.png	2	78	0	601.632625597995	601.73261838418	0.0999927861848846	stim05_sf1_pattern2_cont1_shape2.png	1	2	1	2	1	2	0	0	0	0	0	0	0	0	0	0	0	0	1	21
407.20068359375	0.0999974780716002	833947	411	3	stim03_sf1_pattern1_cont2_shape2.png	2	79	0	602.132611522276	602.232609000348	0.0999974780716002	stim03_sf1_pattern1_cont2_shape2.png	1	1	2	2	1	1	0	0	0	0	0	0	0	0	0	0	0	0	1	21
407.70068359375	0.0999971848505083	834971	412	1	stim01_sf1_pattern1_cont1_shape2.png	2	80	0	602.632600378973	602.732597563823	0.0999971848505083	stim01_sf1_pattern1_cont1_shape2.png	1	1	1	2	1	1	0	0	0	0	0	0	0	0	0	0	0	0	1	21
408.20068359375	0.0999968916003127	835995	413	10	stim10_sf2_pattern1_cont2_shape1.png	2	81	0	603.132588062726	603.232584954327	0.0999968916003127	stim10_sf2_pattern1_cont2_shape1.png	2	1	2	1	1	3	0	0	0	0	0	0	0	0	0	0	0	0	1	21
408.70068359375	0.0999945456569549	837019	414	7	stim07_sf1_pattern2_cont2_shape2.png	2	82	0	603.632580145117	603.732574690774	0.0999945456569549	stim07_sf1_pattern2_cont2_shape2.png	1	2	2	2	1	2	0	0	0	0	0	0	0	0	0	0	0	0	1	21
409.20068359375	0.099993372685276	838043	415	13	stim13_sf2_pattern2_cont1_shape2.png	2	83	0	604.132568415342	604.232561788027	0.099993372685276	stim13_sf2_pattern2_cont1_shape2.png	2	2	1	2	1	2	0	0	0	0	0	0	0	0	0	0	0	0	1	21
409.70068359375	0.0999954253784381	839067	416	8	stim08_sf2_pattern1_cont1_shape1.png	2	84	0	604.632553166652	604.73254859203	0.0999954253784381	stim08_sf2_pattern1_cont1_shape1.png	2	1	1	1	1	3	0	0	0	0	0	0	0	0	0	0	0	0	1	21
410.20068359375	0.0999971848505083	840091	417	3	stim03_sf1_pattern1_cont2_shape2.png	2	85	0	605.132541730127	605.232538914977	0.0999971848505083	stim03_sf1_pattern1_cont2_shape2.png	1	1	2	2	1	1	0	0	0	0	0	0	0	0	0	0	0	0	1	21
410.70068359375	0.0999992375727743	841115	418	6	stim06_sf1_pattern2_cont2_shape1.png	2	86	0	605.632531466574	605.732530704146	0.0999992375727743	stim06_sf1_pattern2_cont2_shape1.png	1	2	2	1	1	4	0	0	0	0	0	0	0	0	0	0	0	0	1	21
411.20068359375	0.0999977713508997	842139	419	0	stim00_sf1_pattern1_cont1_shape1.png	2	87	0	606.132521203021	606.232518974371	0.0999977713508997	stim00_sf1_pattern1_cont1_shape1.png	1	1	1	1	1	3	0	0	0	0	0	0	0	0	0	0	0	0	1	21
411.70068359375	0.0999965983792208	843163	420	4	stim04_sf1_pattern2_cont1_shape1.png	2	88	0	606.632508886745	606.732505485124	0.0999965983792208	stim04_sf1_pattern2_cont1_shape1.png	1	2	1	1	1	4	0	0	0	0	0	0	0	0	0	0	0	0	1	21
412.2001953125	0.0999951321573462	844186	421	15	stim15_sf2_pattern2_cont2_shape2.png	2	89	0	607.132496277249	607.232491409406	0.0999951321573462	stim15_sf2_pattern2_cont2_shape2.png	2	2	2	2	1	2	0	0	0	0	0	0	0	0	0	0	0	0	1	21
412.7001953125	0.100006275431952	845210	422	1	stim01_sf1_pattern1_cont1_shape2.png	2	90	0	607.632474577171	607.732480852603	0.100006275431952	stim01_sf1_pattern1_cont1_shape2.png	1	1	1	2	1	1	0	0	0	0	0	0	0	0	0	0	0	0	1	21
413.2001953125	0.0999992375436705	846234	423	14	stim14_sf2_pattern2_cont2_shape1.png	2	91	0	608.132471058256	608.232470295799	0.0999992375436705	stim14_sf2_pattern2_cont2_shape1.png	2	2	2	1	1	4	0	0	0	0	0	0	0	0	0	0	0	0	1	21
413.7001953125	0.0999883875192609	847258	424	2	stim02_sf1_pattern1_cont2_shape1.png	2	92	0	608.632454343315	608.732442730834	0.0999883875192609	stim02_sf1_pattern1_cont2_shape1.png	1	1	2	1	1	3	0	0	0	0	0	0	0	0	0	0	0	0	1	21
414.2001953125	0.0999954253784381	848282	425	7	stim07_sf1_pattern2_cont2_shape2.png	2	93	0	609.132447891956	609.232443317334	0.0999954253784381	stim07_sf1_pattern2_cont2_shape2.png	1	2	2	2	1	2	0	0	0	0	0	0	0	0	0	0	0	0	1	21
414.7001953125	0.100018884957535	849306	426	12	stim12_sf2_pattern2_cont1_shape1.png	2	94	0	609.632422086434	609.732440971391	0.100018884957535	stim12_sf2_pattern2_cont1_shape1.png	2	2	1	1	1	4	0	0	0	0	0	0	0	0	0	0	0	0	1	21
415.2001953125	0.0999804699386004	850330	427	9	stim09_sf2_pattern1_cont1_shape2.png	2	95	0	610.132425018877	610.232405488816	0.0999804699386004	stim09_sf2_pattern1_cont1_shape2.png	2	1	1	2	1	1	0	0	0	0	0	0	0	0	0	0	0	0	1	21
415.7001953125	0.0999760712729767	851354	428	11	stim11_sf2_pattern1_cont2_shape2.png	2	96	0	610.632412116131	610.732388187404	0.0999760712729767	stim11_sf2_pattern1_cont2_shape2.png	2	1	2	2	1	1	0	0	0	0	0	0	0	0	0	0	0	0	1	21
416.2001953125	0.0999848685751203	852378	429	5	stim05_sf1_pattern2_cont1_shape2.png	2	97	0	611.132412995881	611.232397864456	0.0999848685751203	stim05_sf1_pattern2_cont1_shape2.png	1	2	1	2	1	2	0	0	0	0	0	0	0	0	0	0	0	0	1	21
416.7001953125	0.099961115833139	853402	430	13	stim13_sf2_pattern2_cont1_shape2.png	2	98	0	611.632403318799	611.732364434632	0.099961115833139	stim13_sf2_pattern2_cont1_shape2.png	2	2	1	2	1	2	0	0	0	0	0	0	0	0	0	0	0	0	1	21
417.2001953125	0.0999898537411354	854426	431	10	stim10_sf2_pattern1_cont2_shape1.png	2	99	0	612.132379859278	612.23236971302	0.0999898537411354	stim10_sf2_pattern1_cont2_shape1.png	2	1	2	1	1	3	0	0	0	0	0	0	0	0	0	0	0	0	1	21
417.7001953125	0.0999910267419182	855450	432	6	stim06_sf1_pattern2_cont2_shape1.png	2	100	0	612.632376047084	612.732367073826	0.0999910267419182	stim06_sf1_pattern2_cont2_shape1.png	1	2	2	1	1	4	0	0	0	0	0	0	0	0	0	0	0	0	1	21
418.2001953125	0.0999857483257074	856474	433	5	stim05_sf1_pattern2_cont1_shape2.png	2	101	0	613.132369302475	613.232355050801	0.0999857483257074	stim05_sf1_pattern2_cont1_shape2.png	1	2	1	2	1	2	0	0	0	0	0	0	0	0	0	0	0	0	1	21
418.7001953125	0.0999921997135971	857498	434	10	stim10_sf2_pattern1_cont2_shape1.png	2	102	1	613.632350534841	613.732342734555	0.0999921997135971	stim10_sf2_pattern1_cont2_shape1.png	2	1	2	1	1	3	0	0	0	0	0	0	0	0	0	0	0	0	1	21
419.2001953125	0.0999995307938661	858522	435	10	stim10_sf2_pattern1_cont2_shape1.png	2	103	1	614.132339098316	614.23233862911	0.0999995307938661	stim10_sf2_pattern1_cont2_shape1.png	2	1	2	1	1	3	0	0	0	0	0	0	0	0	0	0	0	0	1	21
419.7001953125	0.100029148481553	859546	436	15	stim15_sf2_pattern2_cont2_shape2.png	2	104	2	614.63233411315	614.732363261632	0.100029148481553	stim15_sf2_pattern2_cont2_shape2.png	2	2	2	2	1	2	0	0	0	0	0	0	0	0	0	0	0	0	1	21
420.2001953125	0.0999930794350803	860570	437	0	stim00_sf1_pattern1_cont1_shape1.png	2	105	2	615.132315638766	615.232308718201	0.0999930794350803	stim00_sf1_pattern1_cont1_shape1.png	1	1	1	1	1	3	0	0	0	0	0	0	0	0	0	0	0	0	1	21
420.7001953125	0.100005395710468	861594	438	10	stim10_sf2_pattern1_cont2_shape1.png	2	106	0	615.632302149519	615.73230754523	0.100005395710468	stim10_sf2_pattern1_cont2_shape1.png	2	1	2	1	1	3	0	0	0	0	0	0	0	0	0	0	0	0	1	21
421.2001953125	0.100044690421782	862618	439	2	stim02_sf1_pattern1_cont2_shape1.png	2	107	0	616.132240274979	616.232284965401	0.100044690421782	stim02_sf1_pattern1_cont2_shape1.png	1	1	2	1	1	3	0	0	0	0	0	0	0	0	0	0	0	0	1	21
421.7001953125	0.100019764649915	863642	440	9	stim09_sf2_pattern1_cont1_shape2.png	2	108	0	616.632252591255	616.732272355905	0.100019764649915	stim09_sf2_pattern1_cont1_shape2.png	2	1	1	2	1	1	0	0	0	0	0	0	0	0	0	0	0	0	1	21
422.2001953125	0.100002170016523	864666	441	15	stim15_sf2_pattern2_cont2_shape2.png	2	109	0	617.132263734529	617.232265904546	0.100002170016523	stim15_sf2_pattern2_cont2_shape2.png	2	2	2	2	1	2	0	0	0	0	0	0	0	0	0	0	0	0	1	21
422.7001953125	0.0999977713217959	865690	442	3	stim03_sf1_pattern1_cont2_shape2.png	2	110	0	617.632255523698	617.73225329502	0.0999977713217959	stim03_sf1_pattern1_cont2_shape2.png	1	1	2	2	1	1	0	0	0	0	0	0	0	0	0	0	0	0	1	21
423.2001953125	0.0999963050999213	866714	443	0	stim00_sf1_pattern1_cont1_shape1.png	2	111	0	618.132242620952	618.232238926052	0.0999963050999213	stim00_sf1_pattern1_cont1_shape1.png	1	1	1	1	1	3	0	0	0	0	0	0	0	0	0	0	0	0	1	21
423.7001953125	0.09999953082297	867738	444	1	stim01_sf1_pattern1_cont1_shape2.png	2	112	0	618.63222531951	618.732224850333	0.09999953082297	stim01_sf1_pattern1_cont1_shape2.png	1	1	1	2	1	1	0	0	0	0	0	0	0	0	0	0	0	0	1	21
424.2001953125	0.100016538985074	868762	445	8	stim08_sf2_pattern1_cont1_shape1.png	2	113	0	619.132200980239	619.232217519224	0.100016538985074	stim08_sf2_pattern1_cont1_shape1.png	2	1	1	1	1	3	0	0	0	0	0	0	0	0	0	0	0	0	1	21
424.7001953125	0.0999960118788294	869786	446	14	stim14_sf2_pattern2_cont2_shape1.png	2	114	0	619.632208311348	619.732204323227	0.0999960118788294	stim14_sf2_pattern2_cont2_shape1.png	2	2	2	1	1	4	0	0	0	0	0	0	0	0	0	0	0	0	1	21
425.2001953125	0.0999983578221872	870810	447	4	stim04_sf1_pattern2_cont1_shape1.png	2	115	0	620.132195701852	620.232194059674	0.0999983578221872	stim04_sf1_pattern2_cont1_shape1.png	1	2	1	1	1	4	0	0	0	0	0	0	0	0	0	0	0	0	1	21
425.7001953125	0.0999933726561721	871834	448	7	stim07_sf1_pattern2_cont2_shape2.png	2	116	0	620.632186024799	620.732179397455	0.0999933726561721	stim07_sf1_pattern2_cont2_shape2.png	1	2	2	2	1	2	0	0	0	0	0	0	0	0	0	0	0	0	1	21
426.2001953125	0.0999775374948513	872858	449	12	stim12_sf2_pattern2_cont1_shape1.png	2	117	0	621.132175174745	621.23215271224	0.0999775374948513	stim12_sf2_pattern2_cont1_shape1.png	2	2	1	1	1	4	0	0	0	0	0	0	0	0	0	0	0	0	1	21
