onset	duration	onsetsample	eventnumber	stimnumber	stimname	blocknumber	trialnumber	istarget	time_stimon	time_stimoff	stimdur	stimfilename	spatial_freq	pattern	contrast	shape	is_fast_stream	category	ppt_1_response	ppt_1_keypressed	ppt_1_rt	ppt_1_correct	ppt_2_response	ppt_2_keypressed	ppt_2_rt	ppt_2_correct	button1	button2	button3	button4	task_part_number	subjectnr
267.37646484375	0.100003342988202	547587	0	1	stim01_sf1_pattern1_cont1_shape2.png	0	0	0	512.94032214646	513.040325489448	0.100003342988202	stim01_sf1_pattern1_cont1_shape2.png	1	1	1	2	1	3	0	0	0	0	0	0	0	0	0	0	0	0	1	23
267.884765625	0.0999951321282424	548628	1	5	stim05_sf1_pattern2_cont1_shape2.png	0	1	0	513.448696323845	513.548691455973	0.0999951321282424	stim05_sf1_pattern2_cont1_shape2.png	1	2	1	2	1	3	0	0	0	0	0	0	0	0	0	0	0	0	1	23
268.384765625	0.105251242930535	549652	2	15	stim15_sf2_pattern2_cont2_shape2.png	0	2	0	513.96843225148	514.073683494411	0.105251242930535	stim15_sf2_pattern2_cont2_shape2.png	2	2	2	2	1	1	0	0	0	0	0	0	0	0	0	0	0	0	1	23
268.90966796875	0.100011553819058	550727	3	14	stim14_sf2_pattern2_cont2_shape1.png	0	3	0	514.473656691873	514.573668245692	0.100011553819058	stim14_sf2_pattern2_cont2_shape1.png	2	2	2	1	1	1	0	0	0	0	0	0	0	0	0	0	0	0	1	23
269.40966796875	0.0999860415759031	551751	4	6	stim06_sf1_pattern2_cont2_shape1.png	0	4	0	514.973669594619	515.073655636195	0.0999860415759031	stim06_sf1_pattern2_cont2_shape1.png	1	2	2	1	1	4	0	0	0	0	0	0	0	0	0	0	0	0	1	23
269.90966796875	0.100015952484682	552775	5	3	stim03_sf1_pattern1_cont2_shape2.png	0	5	0	515.47362326202	515.573639214505	0.100015952484682	stim03_sf1_pattern1_cont2_shape2.png	1	1	2	2	1	4	0	0	0	0	0	0	0	0	0	0	0	0	1	23
270.40966796875	0.100017125456361	553799	6	11	stim11_sf2_pattern1_cont2_shape2.png	0	6	0	515.973613291717	516.073630417173	0.100017125456361	stim11_sf2_pattern1_cont2_shape2.png	2	1	2	2	1	1	0	0	0	0	0	0	0	0	0	0	0	0	1	23
270.90966796875	0.0999276859511156	554823	7	0	stim00_sf1_pattern1_cont1_shape1.png	0	7	0	516.473692760919	516.57362044687	0.0999276859511156	stim00_sf1_pattern1_cont1_shape1.png	1	1	1	1	1	3	0	0	0	0	0	0	0	0	0	0	0	0	1	23
271.40966796875	0.100001876766328	555847	8	8	stim08_sf2_pattern1_cont1_shape1.png	0	8	0	516.973607426829	517.073609303596	0.100001876766328	stim08_sf2_pattern1_cont1_shape1.png	2	1	1	1	1	2	0	0	0	0	0	0	0	0	0	0	0	0	1	23
271.90966796875	0.099994252435863	556871	9	9	stim09_sf2_pattern1_cont1_shape2.png	0	9	0	517.473593937582	517.573588190018	0.099994252435863	stim09_sf2_pattern1_cont1_shape2.png	2	1	1	2	1	2	0	0	0	0	0	0	0	0	0	0	0	0	1	23
272.40966796875	0.0999751915223897	557895	10	10	stim10_sf2_pattern1_cont2_shape1.png	0	10	0	517.97358484703	518.073560038552	0.0999751915223897	stim10_sf2_pattern1_cont2_shape1.png	2	1	2	1	1	1	0	0	0	0	0	0	0	0	0	0	0	0	1	23
272.90966796875	0.0999901469913311	558919	11	13	stim13_sf2_pattern2_cont1_shape2.png	0	11	0	518.473556695564	518.573546842556	0.0999901469913311	stim13_sf2_pattern2_cont1_shape2.png	2	2	1	2	1	2	0	0	0	0	0	0	0	0	0	0	0	0	1	23
273.40966796875	0.099997478100704	559943	12	12	stim12_sf2_pattern2_cont1_shape1.png	0	12	0	518.973542619846	519.073540097947	0.099997478100704	stim12_sf2_pattern2_cont1_shape1.png	2	2	1	1	1	2	0	0	0	0	0	0	0	0	0	0	0	0	1	23
273.90966796875	0.0999825226608664	560967	13	7	stim07_sf1_pattern2_cont2_shape2.png	0	13	0	519.47353763468	519.573520157341	0.0999825226608664	stim07_sf1_pattern2_cont2_shape2.png	1	2	2	2	1	4	0	0	0	0	0	0	0	0	0	0	0	0	1	23
274.40966796875	0.0999919064634014	561991	14	2	stim02_sf1_pattern1_cont2_shape1.png	0	14	0	519.97351446838	520.073506374843	0.0999919064634014	stim02_sf1_pattern1_cont2_shape1.png	1	1	2	1	1	4	0	0	0	0	0	0	0	0	0	0	0	0	1	23
274.90966796875	0.0999965983792208	563015	15	4	stim04_sf1_pattern2_cont1_shape1.png	0	15	0	520.473499806161	520.57349640454	0.0999965983792208	stim04_sf1_pattern2_cont1_shape1.png	1	2	1	1	1	3	0	0	0	0	0	0	0	0	0	0	0	0	1	23
275.40966796875	0.0999531982233748	564039	16	5	stim05_sf1_pattern2_cont1_shape2.png	0	16	0	520.973533236014	521.073486434238	0.0999531982233748	stim05_sf1_pattern2_cont1_shape2.png	1	2	1	2	1	3	0	0	0	0	0	0	0	0	0	0	0	0	1	23
275.90966796875	0.0999957186286338	565063	17	3	stim03_sf1_pattern1_cont2_shape2.png	0	17	0	521.473505964299	521.573501682928	0.0999957186286338	stim03_sf1_pattern1_cont2_shape2.png	1	1	2	2	1	4	0	0	0	0	0	0	0	0	0	0	0	0	1	23
276.40966796875	0.0999983578221872	566087	18	2	stim02_sf1_pattern1_cont2_shape1.png	0	18	0	521.973493941303	522.073492299125	0.0999983578221872	stim02_sf1_pattern1_cont2_shape1.png	1	1	2	1	1	4	0	0	0	0	0	0	0	0	0	0	0	0	1	23
276.90966796875	0.100000703765545	567111	19	12	stim12_sf2_pattern2_cont1_shape1.png	0	19	0	522.473477812862	522.573478516628	0.100000703765545	stim12_sf2_pattern2_cont1_shape1.png	2	2	1	1	1	2	0	0	0	0	0	0	0	0	0	0	0	0	1	23
277.40966796875	0.0999963050999213	568135	20	7	stim07_sf1_pattern2_cont2_shape2.png	0	20	0	522.973470775003	523.073467080103	0.0999963050999213	stim07_sf1_pattern2_cont2_shape2.png	1	2	2	2	1	4	0	0	0	0	0	0	0	0	0	0	0	0	1	23
277.90966796875	0.100001583545236	569159	21	9	stim09_sf2_pattern1_cont1_shape2.png	0	21	0	523.473462270893	523.573463854438	0.100001583545236	stim09_sf2_pattern1_cont1_shape2.png	2	1	1	2	1	2	0	0	0	0	0	0	0	0	0	0	0	0	1	23
278.40966796875	0.099997478100704	570183	22	13	stim13_sf2_pattern2_cont1_shape2.png	0	22	0	523.973440277594	524.073437755695	0.099997478100704	stim13_sf2_pattern2_cont1_shape2.png	2	2	1	2	1	2	0	0	0	0	0	0	0	0	0	0	0	0	1	23
278.90966796875	0.100002756516915	571207	23	15	stim15_sf2_pattern2_cont2_shape2.png	0	23	0	524.47342913429	524.573431890807	0.100002756516915	stim15_sf2_pattern2_cont2_shape2.png	2	2	2	2	1	1	0	0	0	0	0	0	0	0	0	0	0	0	1	23
279.4091796875	0.0999980646010954	572230	24	8	stim08_sf2_pattern1_cont1_shape1.png	0	24	0	524.973415938293	525.073414002894	0.0999980646010954	stim08_sf2_pattern1_cont1_shape1.png	2	1	1	1	1	2	0	0	0	0	0	0	0	0	0	0	0	0	1	23
279.9091796875	0.0999957186286338	573254	25	0	stim00_sf1_pattern1_cont1_shape1.png	0	25	0	525.47340596799	525.573401686619	0.0999957186286338	stim00_sf1_pattern1_cont1_shape1.png	1	1	1	1	1	3	0	0	0	0	0	0	0	0	0	0	0	0	1	23
280.4091796875	0.0999948389071506	574278	26	4	stim04_sf1_pattern2_cont1_shape1.png	0	26	0	525.973392185522	526.073387024429	0.0999948389071506	stim04_sf1_pattern2_cont1_shape1.png	1	2	1	1	1	3	0	0	0	0	0	0	0	0	0	0	0	0	1	23
280.9091796875	0.0999939591565635	575302	27	1	stim01_sf1_pattern1_cont1_shape2.png	0	27	0	526.47338250847	526.573376467626	0.0999939591565635	stim01_sf1_pattern1_cont1_shape2.png	1	1	1	2	1	3	0	0	0	0	0	0	0	0	0	0	0	0	1	23
281.4091796875	0.0999883875483647	576326	28	6	stim06_sf1_pattern2_cont2_shape1.png	0	28	0	526.973371071916	527.073359459464	0.0999883875483647	stim06_sf1_pattern2_cont2_shape1.png	1	2	2	1	1	4	0	0	0	0	0	0	0	0	0	0	0	0	1	23
281.9091796875	0.0999965983792208	577350	29	10	stim10_sf2_pattern1_cont2_shape1.png	0	29	0	527.473356996197	527.573353594576	0.0999965983792208	stim10_sf2_pattern1_cont2_shape1.png	2	1	2	1	1	1	0	0	0	0	0	0	0	0	0	0	0	0	1	23
282.4091796875	0.0999960118788294	578374	30	11	stim11_sf2_pattern1_cont2_shape2.png	0	30	0	527.973345852923	528.073341864801	0.0999960118788294	stim11_sf2_pattern1_cont2_shape2.png	2	1	2	2	1	1	0	0	0	0	0	0	0	0	0	0	0	0	1	23
282.9091796875	0.099997478100704	579398	31	14	stim14_sf2_pattern2_cont2_shape1.png	0	31	0	528.473330310982	528.573327789083	0.099997478100704	stim14_sf2_pattern2_cont2_shape1.png	2	2	2	1	1	1	0	0	0	0	0	0	0	0	0	0	0	0	1	23
283.4091796875	0.0999995307938661	580422	32	5	stim05_sf1_pattern2_cont1_shape2.png	0	32	0	528.973318287957	529.073317818751	0.0999995307938661	stim05_sf1_pattern2_cont1_shape2.png	1	2	1	2	1	3	0	0	0	0	0	0	0	0	0	0	0	0	1	23
283.9091796875	0.099997478100704	581446	33	0	stim00_sf1_pattern1_cont1_shape1.png	0	33	0	529.473307437904	529.573304916004	0.099997478100704	stim00_sf1_pattern1_cont1_shape1.png	1	1	1	1	1	3	0	0	0	0	0	0	0	0	0	0	0	0	1	23
284.4091796875	0.0999968916003127	582470	34	7	stim07_sf1_pattern2_cont2_shape2.png	0	34	0	529.973298054101	530.073294945701	0.0999968916003127	stim07_sf1_pattern2_cont2_shape2.png	1	2	2	2	1	4	0	0	0	0	0	0	0	0	0	0	0	0	1	23
284.9091796875	0.0999951321282424	583494	35	9	stim09_sf2_pattern1_cont1_shape2.png	0	35	0	530.473285151355	530.573280283483	0.0999951321282424	stim09_sf2_pattern1_cont1_shape2.png	2	1	1	2	1	2	0	0	0	0	0	0	0	0	0	0	0	0	1	23
285.4091796875	0.100022697122768	584518	36	10	stim10_sf2_pattern1_cont2_shape1.png	0	36	0	530.973247029586	531.073269726709	0.100022697122768	stim10_sf2_pattern1_cont2_shape1.png	2	1	2	1	1	1	0	0	0	0	0	0	0	0	0	0	0	0	1	23
285.9091796875	0.099969619885087	585542	37	2	stim02_sf1_pattern1_cont2_shape1.png	0	37	0	531.473261691805	531.57323131169	0.099969619885087	stim02_sf1_pattern1_cont2_shape1.png	1	1	2	1	1	4	0	0	0	0	0	0	0	0	0	0	0	0	1	23
286.4091796875	0.0999965983792208	586566	38	13	stim13_sf2_pattern2_cont1_shape2.png	0	38	0	531.973248495808	532.073245094187	0.0999965983792208	stim13_sf2_pattern2_cont1_shape2.png	2	2	1	2	1	2	0	0	0	0	0	0	0	0	0	0	0	0	1	23
286.9091796875	0.0999957186286338	587590	39	15	stim15_sf2_pattern2_cont2_shape2.png	0	39	0	532.473232953867	532.573228672496	0.0999957186286338	stim15_sf2_pattern2_cont2_shape2.png	2	2	2	2	1	1	0	0	0	0	0	0	0	0	0	0	0	0	1	23
287.4091796875	0.100008034874918	588614	40	6	stim06_sf1_pattern2_cont2_shape1.png	0	40	0	532.973208907846	533.073216942721	0.100008034874918	stim06_sf1_pattern2_cont2_shape1.png	1	2	2	1	1	4	0	0	0	0	0	0	0	0	0	0	0	0	1	23
287.9091796875	0.0999957186286338	589638	41	11	stim11_sf2_pattern1_cont2_shape2.png	0	41	0	533.473208614596	533.573204333225	0.0999957186286338	stim11_sf2_pattern1_cont2_shape2.png	2	1	2	2	1	1	0	0	0	0	0	0	0	0	0	0	0	0	1	23
288.4091796875	0.100028855260462	590662	42	3	stim03_sf1_pattern1_cont2_shape2.png	0	42	0	533.973174304992	534.073203160253	0.100028855260462	stim03_sf1_pattern1_cont2_shape2.png	1	1	2	2	1	4	0	0	0	0	0	0	0	0	0	0	0	0	1	23
288.9091796875	0.0999942524067592	591686	43	4	stim04_sf1_pattern2_cont1_shape1.png	0	43	0	534.473170786077	534.573165038484	0.0999942524067592	stim04_sf1_pattern2_cont1_shape1.png	1	2	1	1	1	3	0	0	0	0	0	0	0	0	0	0	0	0	1	23
289.4091796875	0.100003049738007	592710	44	8	stim08_sf2_pattern1_cont1_shape1.png	0	44	0	534.973151431943	535.073154481681	0.100003049738007	stim08_sf2_pattern1_cont1_shape1.png	2	1	1	1	1	2	0	0	0	0	0	0	0	0	0	0	0	0	1	23
289.9091796875	0.099985161825316	593734	45	14	stim14_sf2_pattern2_cont2_shape1.png	0	45	0	535.473159642803	535.573144804628	0.099985161825316	stim14_sf2_pattern2_cont2_shape1.png	2	2	2	1	1	1	0	0	0	0	0	0	0	0	0	0	0	0	1	23
290.4091796875	0.099975778022781	594758	46	12	stim12_sf2_pattern2_cont1_shape1.png	0	46	0	535.973149085999	536.073124864022	0.099975778022781	stim12_sf2_pattern2_cont1_shape1.png	2	2	1	1	1	2	0	0	0	0	0	0	0	0	0	0	0	0	1	23
290.9091796875	0.100005395681364	595782	47	1	stim01_sf1_pattern1_cont1_shape2.png	0	47	0	536.473122107534	536.573127503216	0.100005395681364	stim01_sf1_pattern1_cont1_shape2.png	1	1	1	2	1	3	0	0	0	0	0	0	0	0	0	0	0	0	1	23
291.4091796875	0.100004809210077	596806	48	11	stim11_sf2_pattern1_cont2_shape2.png	0	48	0	536.973129438615	537.073134247825	0.100004809210077	stim11_sf2_pattern1_cont2_shape2.png	2	1	2	2	1	1	0	0	0	0	0	0	0	0	0	0	0	0	1	23
291.9091796875	0.0999983578221872	597830	49	1	stim01_sf1_pattern1_cont1_shape2.png	0	49	0	537.473124453478	537.5731228113	0.0999983578221872	stim01_sf1_pattern1_cont1_shape2.png	1	1	1	2	1	3	0	0	0	0	0	0	0	0	0	0	0	0	1	23
292.4091796875	0.09999953082297	598854	50	6	stim06_sf1_pattern2_cont2_shape1.png	0	50	0	537.97310246015	538.073101990973	0.09999953082297	stim06_sf1_pattern2_cont2_shape1.png	1	2	2	1	1	4	0	0	0	0	0	0	0	0	0	0	0	0	1	23
292.9091796875	0.099993372685276	599878	51	4	stim04_sf1_pattern2_cont1_shape1.png	0	51	0	538.473104219622	538.573097592307	0.099993372685276	stim04_sf1_pattern2_cont1_shape1.png	1	2	1	1	1	3	0	0	0	0	0	0	0	0	0	0	0	0	1	23
293.4091796875	0.0999857483257074	600902	52	15	stim15_sf2_pattern2_cont2_shape2.png	0	52	0	538.973090730375	539.0730764787	0.0999857483257074	stim15_sf2_pattern2_cont2_shape2.png	2	2	2	2	1	1	0	0	0	0	0	0	0	0	0	0	0	0	1	23
293.9091796875	0.0999930794350803	601926	53	2	stim02_sf1_pattern1_cont2_shape1.png	0	53	0	539.473073722213	539.573066801648	0.0999930794350803	stim02_sf1_pattern1_cont2_shape1.png	1	1	2	1	1	4	0	0	0	0	0	0	0	0	0	0	0	0	1	23
294.4091796875	0.100002463237615	602950	54	0	stim00_sf1_pattern1_cont1_shape1.png	0	54	0	539.973060819466	540.073063282704	0.100002463237615	stim00_sf1_pattern1_cont1_shape1.png	1	1	1	1	1	3	0	0	0	0	0	0	0	0	0	0	0	0	1	23
294.9091796875	0.100018298457144	603974	55	5	stim05_sf1_pattern2_cont1_shape2.png	0	55	0	540.473044691025	540.573062989482	0.100018298457144	stim05_sf1_pattern2_cont1_shape2.png	1	2	1	2	1	3	0	0	0	0	0	0	0	0	0	0	0	0	1	23
295.4091796875	0.0999951321282424	604998	56	3	stim03_sf1_pattern1_cont2_shape2.png	0	56	0	540.973033841001	541.073028973129	0.0999951321282424	stim03_sf1_pattern1_cont2_shape2.png	1	1	2	2	1	4	0	0	0	0	0	0	0	0	0	0	0	0	1	23
295.9091796875	0.0999965983792208	606022	57	12	stim12_sf2_pattern2_cont1_shape1.png	0	57	0	541.473020938225	541.573017536604	0.0999965983792208	stim12_sf2_pattern2_cont1_shape1.png	2	2	1	1	1	2	0	0	0	0	0	0	0	0	0	0	0	0	1	23
296.40869140625	0.099997478100704	607045	58	7	stim07_sf1_pattern2_cont2_shape2.png	0	58	0	541.973010088201	542.073007566301	0.099997478100704	stim07_sf1_pattern2_cont2_shape2.png	1	2	2	2	1	4	0	0	0	0	0	0	0	0	0	0	0	0	1	23
296.90869140625	0.0999927862139884	608069	59	8	stim08_sf2_pattern1_cont1_shape1.png	0	59	0	542.473000704369	542.572993490583	0.0999927862139884	stim08_sf2_pattern1_cont1_shape1.png	2	1	1	1	1	2	0	0	0	0	0	0	0	0	0	0	0	0	1	23
297.40869140625	0.0999930794350803	609093	60	9	stim09_sf2_pattern1_cont1_shape2.png	0	60	0	542.972984282707	543.072977362142	0.0999930794350803	stim09_sf2_pattern1_cont1_shape2.png	2	1	1	2	1	2	0	0	0	0	0	0	0	0	0	0	0	0	1	23
297.90869140625	0.0999936659063678	610117	61	14	stim14_sf2_pattern2_cont2_shape1.png	0	61	0	543.472975485376	543.572969151282	0.0999936659063678	stim14_sf2_pattern2_cont2_shape1.png	2	2	2	1	1	1	0	0	0	0	0	0	0	0	0	0	0	0	1	23
298.40869140625	0.0999960118788294	611141	62	10	stim10_sf2_pattern1_cont2_shape1.png	0	62	0	543.972962582629	544.072958594508	0.0999960118788294	stim10_sf2_pattern1_cont2_shape1.png	2	1	2	1	1	1	0	0	0	0	0	0	0	0	0	0	0	0	1	23
298.90869140625	0.100017418706557	612165	63	13	stim13_sf2_pattern2_cont1_shape2.png	0	63	0	544.472927393304	544.572944812011	0.100017418706557	stim13_sf2_pattern2_cont1_shape2.png	2	2	1	2	1	2	0	0	0	0	0	0	0	0	0	0	0	0	1	23
299.40869140625	0.10000304976711	613189	64	5	stim05_sf1_pattern2_cont1_shape2.png	0	64	0	544.972934137913	545.072937187681	0.10000304976711	stim05_sf1_pattern2_cont1_shape2.png	1	2	1	2	1	3	0	0	0	0	0	0	0	0	0	0	0	0	1	23
299.90869140625	0.10001829842804	614213	65	3	stim03_sf1_pattern1_cont2_shape2.png	0	65	0	545.472904520255	545.572922818683	0.10001829842804	stim03_sf1_pattern1_cont2_shape2.png	1	1	2	2	1	4	0	0	0	0	0	0	0	0	0	0	0	0	1	23
300.40869140625	0.0999948389071506	615237	66	2	stim02_sf1_pattern1_cont2_shape1.png	0	66	0	545.972915663529	546.072910502437	0.0999948389071506	stim02_sf1_pattern1_cont2_shape1.png	1	1	2	1	1	4	0	0	0	0	0	0	0	0	0	0	0	0	1	23
300.90869140625	0.09999131996301	616261	67	8	stim08_sf2_pattern1_cont1_shape1.png	0	67	0	546.472906279727	546.57289759969	0.09999131996301	stim08_sf2_pattern1_cont1_shape1.png	2	1	1	1	1	2	0	0	0	0	0	0	0	0	0	0	0	0	1	23
301.40869140625	0.0999878010479733	617285	68	9	stim09_sf2_pattern1_cont1_shape2.png	0	68	0	546.972896602645	547.072884403693	0.0999878010479733	stim09_sf2_pattern1_cont1_shape2.png	2	1	1	2	1	2	0	0	0	0	0	0	0	0	0	0	0	0	1	23
301.90869140625	0.0999954253784381	618309	69	15	stim15_sf2_pattern2_cont2_shape2.png	0	69	0	547.472880474234	547.572875899612	0.0999954253784381	stim15_sf2_pattern2_cont2_shape2.png	2	2	2	2	1	1	0	0	0	0	0	0	0	0	0	0	0	0	1	23
302.40869140625	0.0999945456569549	619333	70	1	stim01_sf1_pattern1_cont1_shape2.png	0	70	0	547.972864932264	548.072859477921	0.0999945456569549	stim01_sf1_pattern1_cont1_shape2.png	1	1	1	2	1	3	0	0	0	0	0	0	0	0	0	0	0	0	1	23
302.90869140625	0.0999880942690652	620357	71	13	stim13_sf2_pattern2_cont1_shape2.png	0	71	0	548.472839713271	548.57282780754	0.0999880942690652	stim13_sf2_pattern2_cont1_shape2.png	2	2	1	2	1	2	0	0	0	0	0	0	0	0	0	0	0	0	1	23
303.40869140625	0.100016245734878	621381	72	7	stim07_sf1_pattern2_cont2_shape2.png	0	72	0	548.972820359137	549.072836604872	0.100016245734878	stim07_sf1_pattern2_cont2_shape2.png	1	2	2	2	1	4	0	0	0	0	0	0	0	0	0	0	0	0	1	23
303.90869140625	0.0999775374948513	622405	73	4	stim04_sf1_pattern2_cont1_shape1.png	0	73	0	549.472831502411	549.572809039906	0.0999775374948513	stim04_sf1_pattern2_cont1_shape1.png	1	2	1	1	1	3	0	0	0	0	0	0	0	0	0	0	0	0	1	23
304.40869140625	0.0999954253784381	623429	74	10	stim10_sf2_pattern1_cont2_shape1.png	0	74	0	549.972794846894	550.072790272272	0.0999954253784381	stim10_sf2_pattern1_cont2_shape1.png	2	1	2	1	1	1	0	0	0	0	0	0	0	0	0	0	0	0	1	23
304.90869140625	0.0999746050511021	624453	75	0	stim00_sf1_pattern1_cont1_shape1.png	0	75	0	550.472803057724	550.572777662775	0.0999746050511021	stim00_sf1_pattern1_cont1_shape1.png	1	1	1	1	1	3	0	0	0	0	0	0	0	0	0	0	0	0	1	23
305.40869140625	0.100004222738789	625477	76	11	stim11_sf2_pattern1_cont2_shape2.png	0	76	0	550.972782530618	551.072786753357	0.100004222738789	stim11_sf2_pattern1_cont2_shape2.png	2	1	2	2	1	1	0	0	0	0	0	0	0	0	0	0	0	0	1	23
305.90869140625	0.100014193041716	626501	77	12	stim12_sf2_pattern2_cont1_shape1.png	0	77	0	551.472762296762	551.572776489804	0.100014193041716	stim12_sf2_pattern2_cont1_shape1.png	2	2	1	1	1	2	0	0	0	0	0	0	0	0	0	0	0	0	1	23
306.40869140625	0.099977830745047	627525	78	6	stim06_sf1_pattern2_cont2_shape1.png	0	78	0	551.972775199509	552.072753030254	0.099977830745047	stim06_sf1_pattern2_cont2_shape1.png	1	2	2	1	1	4	0	0	0	0	0	0	0	0	0	0	0	0	1	23
306.90869140625	0.0999892672407441	628549	79	14	stim14_sf2_pattern2_cont2_shape1.png	0	79	0	552.4727690414	552.572758308641	0.0999892672407441	stim14_sf2_pattern2_cont2_shape1.png	2	2	2	1	1	1	0	0	0	0	0	0	0	0	0	0	0	0	1	23
307.40869140625	0.0999963051290251	629573	80	11	stim11_sf2_pattern1_cont2_shape2.png	0	80	0	552.972754672403	553.072750977532	0.0999963051290251	stim11_sf2_pattern1_cont2_shape2.png	2	1	2	2	1	1	0	0	0	0	0	0	0	0	0	0	0	0	1	23
307.90869140625	0.0999892672698479	630597	81	7	stim07_sf1_pattern2_cont2_shape2.png	0	81	0	553.472746168321	553.572735435591	0.0999892672698479	stim07_sf1_pattern2_cont2_shape2.png	1	2	2	2	1	4	0	0	0	0	0	0	0	0	0	0	0	0	1	23
308.40869140625	0.0999878010188695	631621	82	14	stim14_sf2_pattern2_cont2_shape1.png	0	82	0	553.972741183185	554.072728984203	0.0999878010188695	stim14_sf2_pattern2_cont2_shape1.png	2	2	2	1	1	1	0	0	0	0	0	0	0	0	0	0	0	0	1	23
308.90869140625	0.0999886807694566	632645	83	9	stim09_sf2_pattern1_cont1_shape2.png	0	83	0	554.472723295272	554.572711976041	0.0999886807694566	stim09_sf2_pattern1_cont1_shape2.png	2	1	1	2	1	2	0	0	0	0	0	0	0	0	0	0	0	0	1	23
309.40869140625	0.0999963050999213	633669	84	2	stim02_sf1_pattern1_cont2_shape1.png	0	84	0	554.972701008723	555.072697313823	0.0999963050999213	stim02_sf1_pattern1_cont2_shape1.png	1	1	2	1	1	4	0	0	0	0	0	0	0	0	0	0	0	0	1	23
309.90869140625	0.100006861932343	634693	85	12	stim12_sf2_pattern2_cont1_shape1.png	0	85	0	555.472691624891	555.572698486823	0.100006861932343	stim12_sf2_pattern2_cont1_shape1.png	2	2	1	1	1	2	0	0	0	0	0	0	0	0	0	0	0	0	1	23
310.40869140625	0.0999954254075419	635717	86	0	stim00_sf1_pattern1_cont1_shape1.png	0	86	0	555.972678135644	556.072673561051	0.0999954254075419	stim00_sf1_pattern1_cont1_shape1.png	1	1	1	1	1	3	0	0	0	0	0	0	0	0	0	0	0	0	1	23
310.90869140625	0.099993372685276	636741	87	12	stim12_sf2_pattern2_cont1_shape1.png	0	87	1	556.472668751841	556.572662124527	0.099993372685276	stim12_sf2_pattern2_cont1_shape1.png	2	2	1	1	1	2	0	0	0	0	0	0	0	0	0	0	0	0	1	23
311.40869140625	0.0999992375727743	637765	88	12	stim12_sf2_pattern2_cont1_shape1.png	0	88	1	556.972652330151	557.072651567723	0.0999992375727743	stim12_sf2_pattern2_cont1_shape1.png	2	2	1	1	1	2	0	0	0	0	0	0	0	0	0	0	0	0	1	23
311.90869140625	0.0999963051290251	638789	89	8	stim08_sf2_pattern1_cont1_shape1.png	0	89	2	557.472642653098	557.572638958227	0.0999963051290251	stim08_sf2_pattern1_cont1_shape1.png	2	1	1	1	1	2	0	0	0	0	0	0	0	0	0	0	0	0	1	23
312.40869140625	0.0999971848505083	639813	90	15	stim15_sf2_pattern2_cont2_shape2.png	0	90	2	557.972629457101	558.072626641952	0.0999971848505083	stim15_sf2_pattern2_cont2_shape2.png	2	2	2	2	1	1	0	0	0	0	0	0	0	0	0	0	0	0	1	23
312.90869140625	0.100020937650697	640837	91	8	stim08_sf2_pattern1_cont1_shape1.png	0	91	0	558.472594267776	558.572615205427	0.100020937650697	stim08_sf2_pattern1_cont1_shape1.png	2	1	1	1	1	2	0	0	0	0	0	0	0	0	0	0	0	0	1	23
313.408203125	0.0999916132132057	641860	92	1	stim01_sf1_pattern1_cont1_shape2.png	0	92	0	558.972607463773	559.072599076986	0.0999916132132057	stim01_sf1_pattern1_cont1_shape2.png	1	1	1	2	1	3	0	0	0	0	0	0	0	0	0	0	0	0	1	23
313.908203125	0.0999945456569549	642884	93	3	stim03_sf1_pattern1_cont2_shape2.png	0	93	0	559.472596613748	559.572591159405	0.0999945456569549	stim03_sf1_pattern1_cont2_shape2.png	1	1	2	2	1	4	0	0	0	0	0	0	0	0	0	0	0	0	1	23
314.408203125	0.100017711956752	643908	94	13	stim13_sf2_pattern2_cont1_shape2.png	0	94	0	559.972561131173	560.07257884313	0.100017711956752	stim13_sf2_pattern2_cont1_shape2.png	2	2	1	2	1	2	0	0	0	0	0	0	0	0	0	0	0	0	1	23
314.908203125	0.0999658077198546	644932	95	6	stim06_sf1_pattern2_cont2_shape1.png	0	95	0	560.472572567698	560.572538375418	0.0999658077198546	stim06_sf1_pattern2_cont2_shape1.png	1	2	2	1	1	4	0	0	0	0	0	0	0	0	0	0	0	0	1	23
315.408203125	0.100019764649915	645956	96	15	stim15_sf2_pattern2_cont2_shape2.png	0	96	0	560.972537085152	561.072556849802	0.100019764649915	stim15_sf2_pattern2_cont2_shape2.png	2	2	2	2	1	1	0	0	0	0	0	0	0	0	0	0	0	0	1	23
315.908203125	0.0999980645719916	646980	97	5	stim05_sf1_pattern2_cont1_shape2.png	0	97	0	561.472549108177	561.572547172749	0.0999980645719916	stim05_sf1_pattern2_cont1_shape2.png	1	2	1	2	1	3	0	0	0	0	0	0	0	0	0	0	0	0	1	23
316.408203125	0.0999939591856673	648004	98	4	stim04_sf1_pattern2_cont1_shape1.png	0	98	0	561.972539137845	562.072533097031	0.0999939591856673	stim04_sf1_pattern2_cont1_shape1.png	1	2	1	1	1	3	0	0	0	0	0	0	0	0	0	0	0	0	1	23
316.908203125	0.100001876766328	649028	99	10	stim10_sf2_pattern1_cont2_shape1.png	0	99	0	562.472523009434	562.5725248862	0.100001876766328	stim10_sf2_pattern1_cont2_shape1.png	2	1	2	1	1	1	0	0	0	0	0	0	0	0	0	0	0	0	1	23
317.408203125	0.0999898537411354	650052	100	3	stim03_sf1_pattern1_cont2_shape2.png	0	100	0	562.972515385074	563.072505238815	0.0999898537411354	stim03_sf1_pattern1_cont2_shape2.png	1	1	2	2	1	4	0	0	0	0	0	0	0	0	0	0	0	0	1	23
317.908203125	0.0999798834382091	651076	101	8	stim08_sf2_pattern1_cont1_shape1.png	0	101	0	563.472498376912	563.57247826035	0.0999798834382091	stim08_sf2_pattern1_cont1_shape1.png	2	1	1	1	1	2	0	0	0	0	0	0	0	0	0	0	0	0	1	23
318.408203125	0.0999725523288362	652100	102	12	stim12_sf2_pattern2_cont1_shape1.png	0	102	0	563.972488113359	564.072460665688	0.0999725523288362	stim12_sf2_pattern2_cont1_shape1.png	2	2	1	1	1	2	0	0	0	0	0	0	0	0	0	0	0	0	1	23
318.908203125	0.100016832206165	653124	103	9	stim09_sf2_pattern1_cont1_shape2.png	0	103	0	564.472453217284	564.57247004949	0.100016832206165	stim09_sf2_pattern1_cont1_shape2.png	2	1	1	2	1	2	0	0	0	0	0	0	0	0	0	0	0	0	1	23
319.408203125	0.0999942524067592	654148	104	2	stim02_sf1_pattern1_cont2_shape1.png	0	104	0	564.97245028484	565.072444537247	0.0999942524067592	stim02_sf1_pattern1_cont2_shape1.png	1	1	2	1	1	4	0	0	0	0	0	0	0	0	0	0	0	0	1	23
319.908203125	0.099997478100704	655172	105	0	stim00_sf1_pattern1_cont1_shape1.png	0	105	0	565.472430344234	565.572427822335	0.099997478100704	stim00_sf1_pattern1_cont1_shape1.png	1	1	1	1	1	3	0	0	0	0	0	0	0	0	0	0	0	0	1	23
320.408203125	0.0999834023823496	656196	106	14	stim14_sf2_pattern2_cont2_shape1.png	0	106	0	565.972431223956	566.072414626338	0.0999834023823496	stim14_sf2_pattern2_cont2_shape1.png	2	2	2	1	1	1	0	0	0	0	0	0	0	0	0	0	0	0	1	23
320.908203125	0.0999751915223897	657220	107	6	stim06_sf1_pattern2_cont2_shape1.png	0	107	0	566.472428878013	566.572404069535	0.0999751915223897	stim06_sf1_pattern2_cont2_shape1.png	1	2	2	1	1	4	0	0	0	0	0	0	0	0	0	0	0	0	1	23
321.408203125	0.0999948389071506	658244	108	1	stim01_sf1_pattern1_cont1_shape2.png	0	108	0	566.972416561737	567.072411400644	0.0999948389071506	stim01_sf1_pattern1_cont1_shape2.png	1	1	1	2	1	3	0	0	0	0	0	0	0	0	0	0	0	0	1	23
321.908203125	0.0999960118788294	659268	109	15	stim15_sf2_pattern2_cont2_shape2.png	0	109	0	567.472410110378	567.572406122257	0.0999960118788294	stim15_sf2_pattern2_cont2_shape2.png	2	2	2	2	1	1	0	0	0	0	0	0	0	0	0	0	0	0	1	23
322.408203125	0.100005395681364	660292	110	10	stim10_sf2_pattern1_cont2_shape1.png	0	110	0	567.972402779269	568.07240817495	0.100005395681364	stim10_sf2_pattern1_cont2_shape1.png	2	1	2	1	1	1	0	0	0	0	0	0	0	0	0	0	0	0	1	23
322.908203125	0.100002756487811	661316	111	11	stim11_sf2_pattern1_cont2_shape2.png	0	111	0	568.472385184607	568.572387941094	0.100002756487811	stim11_sf2_pattern1_cont2_shape2.png	2	1	2	2	1	1	0	0	0	0	0	0	0	0	0	0	0	0	1	23
323.408203125	0.0999980646010954	662340	112	13	stim13_sf2_pattern2_cont1_shape2.png	0	112	0	568.972378733219	569.07237679782	0.0999980646010954	stim13_sf2_pattern2_cont1_shape2.png	2	2	1	2	1	2	0	0	0	0	0	0	0	0	0	0	0	0	1	23
323.908203125	0.0999927861848846	663364	113	5	stim05_sf1_pattern2_cont1_shape2.png	0	113	0	569.472373748082	569.572366534267	0.0999927861848846	stim05_sf1_pattern2_cont1_shape2.png	1	2	1	2	1	3	0	0	0	0	0	0	0	0	0	0	0	0	1	23
324.408203125	0.100002170016523	664388	114	7	stim07_sf1_pattern2_cont2_shape2.png	0	114	0	569.972347356088	570.072349526105	0.100002170016523	stim07_sf1_pattern2_cont2_shape2.png	1	2	2	2	1	4	0	0	0	0	0	0	0	0	0	0	0	0	1	23
324.908203125	0.0999836956034414	665412	115	3	stim03_sf1_pattern1_cont2_shape2.png	0	115	1	570.472337972285	570.572321667889	0.0999836956034414	stim03_sf1_pattern1_cont2_shape2.png	1	1	2	2	1	4	0	0	0	0	0	0	0	0	0	0	0	0	1	23
325.408203125	0.0999842821038328	666436	116	3	stim03_sf1_pattern1_cont2_shape2.png	0	116	1	570.972338558757	571.072322840861	0.0999842821038328	stim03_sf1_pattern1_cont2_shape2.png	1	1	2	2	1	4	0	0	0	0	0	0	0	0	0	0	0	0	1	23
325.908203125	0.0999960118788294	667460	117	8	stim08_sf2_pattern1_cont1_shape1.png	0	117	2	571.472313046514	571.572309058392	0.0999960118788294	stim08_sf2_pattern1_cont1_shape1.png	2	1	1	1	1	2	0	0	0	0	0	0	0	0	0	0	0	0	1	23
326.408203125	0.0999942524067592	668484	118	6	stim06_sf1_pattern2_cont2_shape1.png	0	118	2	571.972305128904	572.072299381311	0.0999942524067592	stim06_sf1_pattern2_cont2_shape1.png	1	2	2	1	1	4	0	0	0	0	0	0	0	0	0	0	0	0	1	23
326.908203125	0.0999951321282424	669508	119	4	stim04_sf1_pattern2_cont1_shape1.png	0	119	0	572.472291639686	572.572286771814	0.0999951321282424	stim04_sf1_pattern2_cont1_shape1.png	1	2	1	1	1	3	0	0	0	0	0	0	0	0	0	0	0	0	1	23
327.408203125	0.0999247535073664	670532	120	2	stim02_sf1_pattern1_cont2_shape1.png	0	120	0	572.972279909911	573.072204663418	0.0999247535073664	stim02_sf1_pattern1_cont2_shape1.png	1	1	2	1	1	4	0	0	0	0	0	0	0	0	0	0	0	0	1	23
327.908203125	0.0999907334917225	671556	121	14	stim14_sf2_pattern2_cont2_shape1.png	0	121	0	573.472272285551	573.572263019043	0.0999907334917225	stim14_sf2_pattern2_cont2_shape1.png	2	2	2	1	1	1	0	0	0	0	0	0	0	0	0	0	0	0	1	23
328.408203125	0.0999945456569549	672580	122	9	stim09_sf2_pattern1_cont1_shape2.png	0	122	0	573.972256743611	574.072251289268	0.0999945456569549	stim09_sf2_pattern1_cont1_shape2.png	2	1	1	2	1	2	0	0	0	0	0	0	0	0	0	0	0	0	1	23
328.908203125	0.0999948388780467	673604	123	6	stim06_sf1_pattern2_cont2_shape1.png	0	123	0	574.472246773308	574.572241612186	0.0999948388780467	stim06_sf1_pattern2_cont2_shape1.png	1	2	2	1	1	4	0	0	0	0	0	0	0	0	0	0	0	0	1	23
329.408203125	0.0999983578221872	674628	124	3	stim03_sf1_pattern1_cont2_shape2.png	0	124	0	574.972233577311	575.072231935133	0.0999983578221872	stim03_sf1_pattern1_cont2_shape2.png	1	1	2	2	1	4	0	0	0	0	0	0	0	0	0	0	0	0	1	23
329.908203125	0.0999951321573462	675652	125	1	stim01_sf1_pattern1_cont1_shape2.png	0	125	0	575.472221554286	575.572216686443	0.0999951321573462	stim01_sf1_pattern1_cont1_shape2.png	1	1	1	2	1	3	0	0	0	0	0	0	0	0	0	0	0	0	1	23
330.40771484375	0.0999951321573462	676675	126	13	stim13_sf2_pattern2_cont1_shape2.png	0	126	0	575.972210997483	576.07220612964	0.0999951321573462	stim13_sf2_pattern2_cont1_shape2.png	2	2	1	2	1	2	0	0	0	0	0	0	0	0	0	0	0	0	1	23
330.90771484375	0.0999989443225786	677699	127	0	stim00_sf1_pattern1_cont1_shape1.png	0	127	0	576.472197508265	576.572196452587	0.0999989443225786	stim00_sf1_pattern1_cont1_shape1.png	1	1	1	1	1	3	0	0	0	0	0	0	0	0	0	0	0	0	1	23
331.40771484375	0.0999945456569549	678723	128	4	stim04_sf1_pattern2_cont1_shape1.png	0	128	0	576.972189297405	577.072183843062	0.0999945456569549	stim04_sf1_pattern2_cont1_shape1.png	1	2	1	1	1	3	0	0	0	0	0	0	0	0	0	0	0	0	1	23
331.90771484375	0.0999716725782491	679747	129	12	stim12_sf2_pattern2_cont1_shape1.png	0	129	0	577.472174341965	577.572146014543	0.0999716725782491	stim12_sf2_pattern2_cont1_shape1.png	2	2	1	1	1	2	0	0	0	0	0	0	0	0	0	0	0	0	1	23
332.40771484375	0.0999954254075419	680771	130	7	stim07_sf1_pattern2_cont2_shape2.png	0	130	0	577.972164664883	578.072160090291	0.0999954254075419	stim07_sf1_pattern2_cont2_shape2.png	1	2	2	2	1	4	0	0	0	0	0	0	0	0	0	0	0	0	1	23
332.90771484375	0.0999916132132057	681795	131	5	stim05_sf1_pattern2_cont1_shape2.png	0	131	0	578.472152348637	578.57214396185	0.0999916132132057	stim05_sf1_pattern2_cont1_shape2.png	1	2	1	2	1	3	0	0	0	0	0	0	0	0	0	0	0	0	1	23
333.40771484375	0.0999704996065702	682819	132	8	stim08_sf2_pattern1_cont1_shape1.png	0	132	0	578.972143844556	579.072114344162	0.0999704996065702	stim08_sf2_pattern1_cont1_shape1.png	2	1	1	1	1	2	0	0	0	0	0	0	0	0	0	0	0	0	1	23
333.90771484375	0.0999763645231724	683843	133	11	stim11_sf2_pattern1_cont2_shape2.png	0	133	0	579.472128595837	579.57210496036	0.0999763645231724	stim11_sf2_pattern1_cont2_shape2.png	2	1	2	2	1	1	0	0	0	0	0	0	0	0	0	0	0	0	1	23
334.40771484375	0.0999948388780467	684867	134	15	stim15_sf2_pattern2_cont2_shape2.png	0	134	0	579.9721004444	580.072095283278	0.0999948388780467	stim15_sf2_pattern2_cont2_shape2.png	2	2	2	2	1	1	0	0	0	0	0	0	0	0	0	0	0	0	1	23
334.90771484375	0.0999895604909398	685891	135	10	stim10_sf2_pattern1_cont2_shape1.png	0	135	0	580.472087541653	580.572077102144	0.0999895604909398	stim10_sf2_pattern1_cont2_shape1.png	2	1	2	1	1	1	0	0	0	0	0	0	0	0	0	0	0	0	1	23
335.40771484375	0.0999963051290251	686915	136	7	stim07_sf1_pattern2_cont2_shape2.png	0	136	0	580.972067894269	581.072064199398	0.0999963051290251	stim07_sf1_pattern2_cont2_shape2.png	1	2	2	2	1	4	0	0	0	0	0	0	0	0	0	0	0	0	1	23
335.90771484375	0.100016538985074	687939	137	4	stim04_sf1_pattern2_cont1_shape1.png	0	137	0	581.472057923966	581.572074462951	0.100016538985074	stim04_sf1_pattern2_cont1_shape1.png	1	2	1	1	1	3	0	0	0	0	0	0	0	0	0	0	0	0	1	23
336.40771484375	0.100025043066125	688963	138	3	stim03_sf1_pattern1_cont2_shape2.png	0	138	0	581.972046194191	582.072071237257	0.100025043066125	stim03_sf1_pattern1_cont2_shape2.png	1	1	2	2	1	4	0	0	0	0	0	0	0	0	0	0	0	0	1	23
336.90771484375	0.100018298457144	689987	139	9	stim09_sf2_pattern1_cont1_shape2.png	0	139	0	582.472032998194	582.572051296651	0.100018298457144	stim09_sf2_pattern1_cont1_shape2.png	2	1	1	2	1	2	0	0	0	0	0	0	0	0	0	0	0	0	1	23
337.40771484375	0.0999921996844932	691011	140	0	stim00_sf1_pattern1_cont1_shape1.png	0	140	0	582.972054405051	583.072046604735	0.0999921996844932	stim00_sf1_pattern1_cont1_shape1.png	1	1	1	1	1	3	0	0	0	0	0	0	0	0	0	0	0	0	1	23
337.90771484375	0.0999863347969949	692035	141	15	stim15_sf2_pattern2_cont2_shape2.png	0	141	0	583.472047073941	583.572033408738	0.0999863347969949	stim15_sf2_pattern2_cont2_shape2.png	2	2	2	2	1	1	0	0	0	0	0	0	0	0	0	0	0	0	1	23
338.40771484375	0.0999402954475954	693059	142	2	stim02_sf1_pattern1_cont2_shape1.png	0	142	0	583.972085782181	584.072026077629	0.0999402954475954	stim02_sf1_pattern1_cont2_shape1.png	1	1	2	1	1	4	0	0	0	0	0	0	0	0	0	0	0	0	1	23
338.90771484375	0.0999983578221872	694083	143	1	stim01_sf1_pattern1_cont1_shape2.png	0	143	0	584.472018922475	584.572017280298	0.0999983578221872	stim01_sf1_pattern1_cont1_shape2.png	1	1	1	2	1	3	0	0	0	0	0	0	0	0	0	0	0	0	1	23
339.40771484375	0.100000703794649	695107	144	6	stim06_sf1_pattern2_cont2_shape1.png	0	144	0	584.972008365672	585.072009069467	0.100000703794649	stim06_sf1_pattern2_cont2_shape1.png	1	2	2	1	1	4	0	0	0	0	0	0	0	0	0	0	0	0	1	23
339.90771484375	0.0999939591856673	696131	145	5	stim05_sf1_pattern2_cont1_shape2.png	0	145	0	585.471989598038	585.571983557224	0.0999939591856673	stim05_sf1_pattern2_cont1_shape2.png	1	2	1	2	1	3	0	0	0	0	0	0	0	0	0	0	0	0	1	23
340.40771484375	0.0999828158819582	697155	146	14	stim14_sf2_pattern2_cont2_shape1.png	0	146	0	585.97197552232	586.071958338202	0.0999828158819582	stim14_sf2_pattern2_cont2_shape1.png	2	2	2	1	1	1	0	0	0	0	0	0	0	0	0	0	0	0	1	23
340.90771484375	0.0999795901880134	698179	147	11	stim11_sf2_pattern1_cont2_shape2.png	0	147	0	586.471979920985	586.571959511173	0.0999795901880134	stim11_sf2_pattern1_cont2_shape2.png	2	1	2	2	1	1	0	0	0	0	0	0	0	0	0	0	0	0	1	23
341.40771484375	0.0999980646010954	699203	148	12	stim12_sf2_pattern2_cont1_shape1.png	0	148	0	586.971954701963	587.071952766564	0.0999980646010954	stim12_sf2_pattern2_cont1_shape1.png	2	2	1	1	1	2	0	0	0	0	0	0	0	0	0	0	0	0	1	23
341.90771484375	0.0999960118788294	700227	149	13	stim13_sf2_pattern2_cont1_shape2.png	0	149	0	587.471942678967	587.571938690846	0.0999960118788294	stim13_sf2_pattern2_cont1_shape2.png	2	2	1	2	1	2	0	0	0	0	0	0	0	0	0	0	0	0	1	23
342.40771484375	0.0999945456569549	701251	150	10	stim10_sf2_pattern1_cont2_shape1.png	0	150	0	587.971930655942	588.071925201599	0.0999945456569549	stim10_sf2_pattern1_cont2_shape1.png	2	1	2	1	1	1	0	0	0	0	0	0	0	0	0	0	0	0	1	23
342.90771484375	0.0999998240440618	702275	151	8	stim08_sf2_pattern1_cont1_shape1.png	0	151	0	588.471916286973	588.571916111017	0.0999998240440618	stim08_sf2_pattern1_cont1_shape1.png	2	1	1	1	1	2	0	0	0	0	0	0	0	0	0	0	0	0	1	23
343.40771484375	0.0999977713508997	703299	152	11	stim11_sf2_pattern1_cont2_shape2.png	0	152	0	588.971907782892	589.071905554243	0.0999977713508997	stim11_sf2_pattern1_cont2_shape2.png	2	1	2	2	1	1	0	0	0	0	0	0	0	0	0	0	0	0	1	23
343.90771484375	0.099997478100704	704323	153	1	stim01_sf1_pattern1_cont1_shape2.png	0	153	0	589.471895466617	589.571892944718	0.099997478100704	stim01_sf1_pattern1_cont1_shape2.png	1	1	1	2	1	3	0	0	0	0	0	0	0	0	0	0	0	0	1	23
344.40771484375	0.0999951321573462	705347	154	9	stim09_sf2_pattern1_cont1_shape2.png	0	154	0	589.971885496314	590.071880628471	0.0999951321573462	stim09_sf2_pattern1_cont1_shape2.png	2	1	1	2	1	2	0	0	0	0	0	0	0	0	0	0	0	0	1	23
344.90771484375	0.0999963051290251	706371	155	14	stim14_sf2_pattern2_cont2_shape1.png	0	155	0	590.471871420596	590.571867725725	0.0999963051290251	stim14_sf2_pattern2_cont2_shape1.png	2	2	2	1	1	1	0	0	0	0	0	0	0	0	0	0	0	0	1	23
345.40771484375	0.0999939591565635	707395	156	6	stim06_sf1_pattern2_cont2_shape1.png	0	156	0	590.971859690821	591.071853649977	0.0999939591565635	stim06_sf1_pattern2_cont2_shape1.png	1	2	2	1	1	4	0	0	0	0	0	0	0	0	0	0	0	0	1	23
345.90771484375	0.0999939591565635	708419	157	12	stim12_sf2_pattern2_cont1_shape1.png	0	157	0	591.471852946212	591.571846905368	0.0999939591565635	stim12_sf2_pattern2_cont1_shape1.png	2	2	1	1	1	2	0	0	0	0	0	0	0	0	0	0	0	0	1	23
346.40771484375	0.100002756487811	709443	158	2	stim02_sf1_pattern1_cont2_shape1.png	0	158	0	591.971835938049	592.071838694537	0.100002756487811	stim02_sf1_pattern1_cont2_shape1.png	1	1	2	1	1	4	0	0	0	0	0	0	0	0	0	0	0	0	1	23
346.90771484375	0.0999942524067592	710467	159	10	stim10_sf2_pattern1_cont2_shape1.png	0	159	0	592.471826847468	592.571821099875	0.0999942524067592	stim10_sf2_pattern1_cont2_shape1.png	2	1	2	1	1	1	0	0	0	0	0	0	0	0	0	0	0	0	1	23
347.40771484375	0.100000703794649	711491	160	15	stim15_sf2_pattern2_cont2_shape2.png	0	160	0	592.971810719027	593.071811422822	0.100000703794649	stim15_sf2_pattern2_cont2_shape2.png	2	2	2	2	1	1	0	0	0	0	0	0	0	0	0	0	0	0	1	23
347.9072265625	0.0999954253784381	712514	161	4	stim04_sf1_pattern2_cont1_shape1.png	0	161	0	593.471802508197	593.571797933575	0.0999954253784381	stim04_sf1_pattern2_cont1_shape1.png	1	2	1	1	1	3	0	0	0	0	0	0	0	0	0	0	0	0	1	23
348.4072265625	0.0999960118788294	713538	162	5	stim05_sf1_pattern2_cont1_shape2.png	0	162	0	593.971788139228	594.071784151107	0.0999960118788294	stim05_sf1_pattern2_cont1_shape2.png	1	2	1	2	1	3	0	0	0	0	0	0	0	0	0	0	0	0	1	23
348.9072265625	0.100008621404413	714562	163	3	stim03_sf1_pattern1_cont2_shape2.png	0	163	0	594.471762333706	594.57177095511	0.100008621404413	stim03_sf1_pattern1_cont2_shape2.png	1	1	2	2	1	4	0	0	0	0	0	0	0	0	0	0	0	0	1	23
349.4072265625	0.0999989443225786	715586	164	8	stim08_sf2_pattern1_cont1_shape1.png	0	164	0	594.9717429796	595.071741923923	0.0999989443225786	stim08_sf2_pattern1_cont1_shape1.png	2	1	1	1	1	2	0	0	0	0	0	0	0	0	0	0	0	0	1	23
349.9072265625	0.100000410544453	716610	165	7	stim07_sf1_pattern2_cont2_shape2.png	0	165	0	595.471754709375	595.57175511992	0.100000410544453	stim07_sf1_pattern2_cont2_shape2.png	1	2	2	2	1	4	0	0	0	0	0	0	0	0	0	0	0	0	1	23
350.4072265625	0.100027389009483	717634	166	13	stim13_sf2_pattern2_cont1_shape2.png	0	166	0	595.9717198133	596.07174720231	0.100027389009483	stim13_sf2_pattern2_cont1_shape2.png	2	2	1	2	1	2	0	0	0	0	0	0	0	0	0	0	0	0	1	23
350.9072265625	0.0999678604130168	718658	167	0	stim00_sf1_pattern1_cont1_shape1.png	0	167	0	596.471737114713	596.571704975126	0.0999678604130168	stim00_sf1_pattern1_cont1_shape1.png	1	1	1	1	1	3	0	0	0	0	0	0	0	0	0	0	0	0	1	23
378.1318359375	0.0999910267419182	774414	168	8	stim08_sf2_pattern1_cont1_shape1.png	1	0	0	623.696110349003	623.796101375745	0.0999910267419182	stim08_sf2_pattern1_cont1_shape1.png	2	1	1	1	1	2	0	0	0	0	0	0	0	0	0	0	0	0	1	23
378.6318359375	0.0999954254075419	775438	169	4	stim04_sf1_pattern2_cont1_shape1.png	1	1	0	624.19609275434	624.296088179748	0.0999954254075419	stim04_sf1_pattern2_cont1_shape1.png	1	2	1	1	1	3	0	0	0	0	0	0	0	0	0	0	0	0	1	23
379.13134765625	0.0999869213264901	776461	170	1	stim01_sf1_pattern1_cont1_shape2.png	1	2	0	624.696091288119	624.796078209445	0.0999869213264901	stim01_sf1_pattern1_cont1_shape2.png	1	1	1	2	1	3	0	0	0	0	0	0	0	0	0	0	0	0	1	23
379.63134765625	0.0999948389071506	777485	171	2	stim02_sf1_pattern1_cont2_shape1.png	1	3	0	625.196068415069	625.296063253976	0.0999948389071506	stim02_sf1_pattern1_cont2_shape1.png	1	1	2	1	1	4	0	0	0	0	0	0	0	0	0	0	0	0	1	23
380.13134765625	0.0999775374948513	778509	172	5	stim05_sf1_pattern2_cont1_shape2.png	1	4	0	625.696051406907	625.796028944402	0.0999775374948513	stim05_sf1_pattern2_cont1_shape2.png	1	2	1	2	1	3	0	0	0	0	0	0	0	0	0	0	0	0	1	23
380.63134765625	0.0999927861848846	779533	173	3	stim03_sf1_pattern1_cont2_shape2.png	1	5	0	626.196022082469	626.296014868654	0.0999927861848846	stim03_sf1_pattern1_cont2_shape2.png	1	1	2	2	1	4	0	0	0	0	0	0	0	0	0	0	0	0	1	23
381.13134765625	0.0999889739905484	780557	174	9	stim09_sf2_pattern1_cont1_shape2.png	1	6	0	626.696017390583	626.796006364573	0.0999889739905484	stim09_sf2_pattern1_cont1_shape2.png	2	1	1	2	1	2	0	0	0	0	0	0	0	0	0	0	0	0	1	23
381.63134765625	0.100015366013395	781581	175	11	stim11_sf2_pattern1_cont2_shape2.png	1	7	0	627.196004781057	627.296020147071	0.100015366013395	stim11_sf2_pattern1_cont2_shape2.png	2	1	2	2	1	1	0	0	0	0	0	0	0	0	0	0	0	0	1	23
382.13134765625	0.100015072763199	782605	176	10	stim10_sf2_pattern1_cont2_shape1.png	1	8	0	627.695987479645	627.796002552408	0.100015072763199	stim10_sf2_pattern1_cont2_shape1.png	2	1	2	1	1	1	0	0	0	0	0	0	0	0	0	0	0	0	1	23
382.63134765625	0.100000117294258	783629	177	0	stim00_sf1_pattern1_cont1_shape1.png	1	9	0	628.19599158506	628.295991702355	0.100000117294258	stim00_sf1_pattern1_cont1_shape1.png	1	1	1	1	1	3	0	0	0	0	0	0	0	0	0	0	0	0	1	23
383.13134765625	0.0999948389071506	784653	178	6	stim06_sf1_pattern2_cont2_shape1.png	1	10	0	628.695964020095	628.795958859002	0.0999948389071506	stim06_sf1_pattern2_cont2_shape1.png	1	2	2	1	1	4	0	0	0	0	0	0	0	0	0	0	0	0	1	23
383.63134765625	0.100051141809672	785677	179	14	stim14_sf2_pattern2_cont2_shape1.png	1	11	0	629.195920913189	629.295972054999	0.100051141809672	stim14_sf2_pattern2_cont2_shape1.png	2	2	2	1	1	1	0	0	0	0	0	0	0	0	0	0	0	0	1	23
384.13134765625	0.100005102431169	786701	180	15	stim15_sf2_pattern2_cont2_shape2.png	1	12	0	629.695969591761	629.795974694192	0.100005102431169	stim15_sf2_pattern2_cont2_shape2.png	2	2	2	2	1	1	0	0	0	0	0	0	0	0	0	0	0	0	1	23
384.63134765625	0.100001876766328	787725	181	7	stim07_sf1_pattern2_cont2_shape2.png	1	13	0	630.195956982236	630.295958859002	0.100001876766328	stim07_sf1_pattern2_cont2_shape2.png	1	2	2	2	1	4	0	0	0	0	0	0	0	0	0	0	0	0	1	23
385.13134765625	0.0999948389071506	788749	182	13	stim13_sf2_pattern2_cont1_shape2.png	1	14	0	630.695942906517	630.795937745424	0.0999948389071506	stim13_sf2_pattern2_cont1_shape2.png	2	2	1	2	1	2	0	0	0	0	0	0	0	0	0	0	0	0	1	23
385.63134765625	0.0999845753540285	789773	183	12	stim12_sf2_pattern2_cont1_shape1.png	1	15	0	631.19593704163	631.295921616984	0.0999845753540285	stim12_sf2_pattern2_cont1_shape1.png	2	2	1	1	1	2	0	0	0	0	0	0	0	0	0	0	0	0	1	23
386.13134765625	0.0999869212973863	790797	184	13	stim13_sf2_pattern2_cont1_shape2.png	1	16	0	631.695928537549	631.795915458846	0.0999869212973863	stim13_sf2_pattern2_cont1_shape2.png	2	2	1	2	1	2	0	0	0	0	0	0	0	0	0	0	0	0	1	23
386.63134765625	0.0999895605200436	791821	185	15	stim15_sf2_pattern2_cont2_shape2.png	1	17	0	632.195909183414	632.295898743934	0.0999895605200436	stim15_sf2_pattern2_cont2_shape2.png	2	2	2	2	1	1	0	0	0	0	0	0	0	0	0	0	0	0	1	23
387.13134765625	0.0999998240440618	792845	186	6	stim06_sf1_pattern2_cont2_shape1.png	1	18	0	632.695904198277	632.795904022321	0.0999998240440618	stim06_sf1_pattern2_cont2_shape1.png	1	2	2	1	1	4	0	0	0	0	0	0	0	0	0	0	0	0	1	23
387.63134765625	0.0999235805356875	793869	187	9	stim09_sf2_pattern1_cont1_shape2.png	1	19	0	633.195884550893	633.295808131428	0.0999235805356875	stim09_sf2_pattern1_cont1_shape2.png	2	1	1	2	1	2	0	0	0	0	0	0	0	0	0	0	0	0	1	23
388.13134765625	0.0999898537702393	794893	188	11	stim11_sf2_pattern1_cont2_shape2.png	1	20	0	633.695875753561	633.795865607332	0.0999898537702393	stim11_sf2_pattern1_cont2_shape2.png	2	1	2	2	1	1	0	0	0	0	0	0	0	0	0	0	0	0	1	23
388.63134765625	0.100041464727838	795917	189	5	stim05_sf1_pattern2_cont1_shape2.png	1	21	0	634.195816224994	634.295857689722	0.100041464727838	stim05_sf1_pattern2_cont1_shape2.png	1	2	1	2	1	3	0	0	0	0	0	0	0	0	0	0	0	0	1	23
389.13134765625	0.0999942524067592	796941	190	7	stim07_sf1_pattern2_cont2_shape2.png	1	22	0	634.695850241318	634.795844493725	0.0999942524067592	stim07_sf1_pattern2_cont2_shape2.png	1	2	2	2	1	4	0	0	0	0	0	0	0	0	0	0	0	0	1	23
389.63134765625	0.0999954254075419	797965	191	2	stim02_sf1_pattern1_cont2_shape1.png	1	23	0	635.195838218293	635.2958336437	0.0999954254075419	stim02_sf1_pattern1_cont2_shape1.png	1	1	2	1	1	4	0	0	0	0	0	0	0	0	0	0	0	0	1	23
390.13134765625	0.0999963050999213	798989	192	12	stim12_sf2_pattern2_cont1_shape1.png	1	24	0	635.695827661519	635.795823966619	0.0999963050999213	stim12_sf2_pattern2_cont1_shape1.png	2	2	1	1	1	2	0	0	0	0	0	0	0	0	0	0	0	0	1	23
390.63134765625	0.0999892672407441	800013	193	4	stim04_sf1_pattern2_cont1_shape1.png	1	25	0	636.19582062366	636.2958098909	0.0999892672407441	stim04_sf1_pattern2_cont1_shape1.png	1	2	1	1	1	3	0	0	0	0	0	0	0	0	0	0	0	0	1	23
391.13134765625	0.0999898537411354	801037	194	14	stim14_sf2_pattern2_cont2_shape1.png	1	26	0	636.695803028997	636.795792882738	0.0999898537411354	stim14_sf2_pattern2_cont2_shape1.png	2	2	2	1	1	1	0	0	0	0	0	0	0	0	0	0	0	0	1	23
391.63134765625	0.0999737253296189	802061	195	3	stim03_sf1_pattern1_cont2_shape2.png	1	27	0	637.195796284359	637.295770009689	0.0999737253296189	stim03_sf1_pattern1_cont2_shape2.png	1	1	2	2	1	4	0	0	0	0	0	0	0	0	0	0	0	0	1	23
392.13134765625	0.0999983578221872	803085	196	0	stim00_sf1_pattern1_cont1_shape1.png	1	28	0	637.695779569447	637.795777927269	0.0999983578221872	stim00_sf1_pattern1_cont1_shape1.png	1	1	1	1	1	3	0	0	0	0	0	0	0	0	0	0	0	0	1	23
392.63134765625	0.100018884928431	804109	197	1	stim01_sf1_pattern1_cont1_shape2.png	1	29	0	638.195747312566	638.295766197494	0.100018884928431	stim01_sf1_pattern1_cont1_shape2.png	1	1	1	2	1	3	0	0	0	0	0	0	0	0	0	0	0	0	1	23
393.13134765625	0.0999983578221872	805133	198	10	stim10_sf2_pattern1_cont2_shape1.png	1	30	0	638.695753177453	638.795751535275	0.0999983578221872	stim10_sf2_pattern1_cont2_shape1.png	2	1	2	1	1	1	0	0	0	0	0	0	0	0	0	0	0	0	1	23
393.63134765625	0.0999936659063678	806157	199	8	stim08_sf2_pattern1_cont1_shape1.png	1	31	0	639.195744966622	639.295738632529	0.0999936659063678	stim08_sf2_pattern1_cont1_shape1.png	2	1	1	1	1	2	0	0	0	0	0	0	0	0	0	0	0	0	1	23
394.13134765625	0.0999927861848846	807181	200	3	stim03_sf1_pattern1_cont2_shape2.png	1	32	0	639.695735582791	639.795728368976	0.0999927861848846	stim03_sf1_pattern1_cont2_shape2.png	1	1	2	2	1	4	0	0	0	0	0	0	0	0	0	0	0	0	1	23
394.63134765625	0.0999710861069616	808205	201	15	stim15_sf2_pattern2_cont2_shape2.png	1	33	0	640.19572737196	640.295698458067	0.0999710861069616	stim15_sf2_pattern2_cont2_shape2.png	2	2	2	2	1	1	0	0	0	0	0	0	0	0	0	0	0	0	1	23
395.13134765625	0.0999872145766858	809229	202	12	stim12_sf2_pattern2_cont1_shape1.png	1	34	0	640.695716521906	640.795703736483	0.0999872145766858	stim12_sf2_pattern2_cont1_shape1.png	2	2	1	1	1	2	0	0	0	0	0	0	0	0	0	0	0	0	1	23
395.63134765625	0.0999784172163345	810253	203	8	stim08_sf2_pattern1_cont1_shape1.png	1	35	0	641.195700393495	641.295678810711	0.0999784172163345	stim08_sf2_pattern1_cont1_shape1.png	2	1	1	1	1	2	0	0	0	0	0	0	0	0	0	0	0	0	1	23
396.13134765625	0.0999728455790319	811277	204	4	stim04_sf1_pattern2_cont1_shape1.png	1	36	0	641.695693355607	641.795666201186	0.0999728455790319	stim04_sf1_pattern2_cont1_shape1.png	1	2	1	1	1	3	0	0	0	0	0	0	0	0	0	0	0	0	1	23
396.630859375	0.0999707928567659	812300	205	5	stim05_sf1_pattern2_cont1_shape2.png	1	37	0	642.195676640695	642.295647433551	0.0999707928567659	stim05_sf1_pattern2_cont1_shape2.png	1	2	1	2	1	3	0	0	0	0	0	0	0	0	0	0	0	0	1	23
397.130859375	0.0999927861848846	813324	206	6	stim06_sf1_pattern2_cont2_shape1.png	1	38	0	642.69564233112	642.795635117305	0.0999927861848846	stim06_sf1_pattern2_cont2_shape1.png	1	2	2	1	1	4	0	0	0	0	0	0	0	0	0	0	0	0	1	23
397.630859375	0.099993372685276	814348	207	14	stim14_sf2_pattern2_cont2_shape1.png	1	39	0	643.195629135123	643.295622507809	0.099993372685276	stim14_sf2_pattern2_cont2_shape1.png	2	2	2	1	1	1	0	0	0	0	0	0	0	0	0	0	0	0	1	23
398.130859375	0.0999860415759031	815372	208	11	stim11_sf2_pattern1_cont2_shape2.png	1	40	0	643.695628255373	643.795614296949	0.0999860415759031	stim11_sf2_pattern1_cont2_shape2.png	2	1	2	2	1	1	0	0	0	0	0	0	0	0	0	0	0	0	1	23
398.630859375	0.0999945456569549	816396	209	13	stim13_sf2_pattern2_cont1_shape2.png	1	41	0	644.195606262074	644.295600807731	0.0999945456569549	stim13_sf2_pattern2_cont1_shape2.png	2	2	1	2	1	2	0	0	0	0	0	0	0	0	0	0	0	0	1	23
399.130859375	0.100086331134662	817420	210	9	stim09_sf2_pattern1_cont1_shape2.png	1	42	0	644.695611247211	644.795697578345	0.100086331134662	stim09_sf2_pattern1_cont1_shape2.png	2	1	1	2	1	2	0	0	0	0	0	0	0	0	0	0	0	0	1	23
399.630859375	0.0999951321282424	818444	211	0	stim00_sf1_pattern1_cont1_shape1.png	1	43	0	645.195609194518	645.295604326646	0.0999951321282424	stim00_sf1_pattern1_cont1_shape1.png	1	1	1	1	1	3	0	0	0	0	0	0	0	0	0	0	0	0	1	23
400.130859375	0.0999948389071506	819468	212	10	stim10_sf2_pattern1_cont2_shape1.png	1	44	0	645.695599810686	645.795594649593	0.0999948389071506	stim10_sf2_pattern1_cont2_shape1.png	2	1	2	1	1	1	0	0	0	0	0	0	0	0	0	0	0	0	1	23
400.630859375	0.100006861932343	820492	213	2	stim02_sf1_pattern1_cont2_shape1.png	1	45	0	646.195584855217	646.295591717149	0.100006861932343	stim02_sf1_pattern1_cont2_shape1.png	1	1	2	1	1	4	0	0	0	0	0	0	0	0	0	0	0	0	1	23
401.130859375	0.0999986510723829	821516	214	1	stim01_sf1_pattern1_cont1_shape2.png	1	46	0	646.695581043052	646.795579694124	0.0999986510723829	stim01_sf1_pattern1_cont1_shape2.png	1	1	1	2	1	3	0	0	0	0	0	0	0	0	0	0	0	0	1	23
401.630859375	0.09999953082297	822540	215	7	stim07_sf1_pattern2_cont2_shape2.png	1	47	0	647.195559342974	647.295558873797	0.09999953082297	stim07_sf1_pattern2_cont2_shape2.png	1	2	2	2	1	4	0	0	0	0	0	0	0	0	0	0	0	0	1	23
402.130859375	0.09999953082297	823564	216	3	stim03_sf1_pattern1_cont2_shape2.png	1	48	0	647.695546146977	647.7955456778	0.09999953082297	stim03_sf1_pattern1_cont2_shape2.png	1	1	2	2	1	4	0	0	0	0	0	0	0	0	0	0	0	0	1	23
402.630859375	0.0999939591565635	824588	217	4	stim04_sf1_pattern2_cont1_shape1.png	1	49	0	648.195547906449	648.295541865606	0.0999939591565635	stim04_sf1_pattern2_cont1_shape1.png	1	2	1	1	1	3	0	0	0	0	0	0	0	0	0	0	0	0	1	23
403.130859375	0.0999986510723829	825612	218	1	stim01_sf1_pattern1_cont1_shape2.png	1	50	0	648.695523567178	648.79552221825	0.0999986510723829	stim01_sf1_pattern1_cont1_shape2.png	1	1	1	2	1	3	0	0	0	0	0	0	0	0	0	0	0	0	1	23
403.630859375	0.0999957186286338	826636	219	13	stim13_sf2_pattern2_cont1_shape2.png	1	51	0	649.195513303624	649.295509022253	0.0999957186286338	stim13_sf2_pattern2_cont1_shape2.png	2	2	1	2	1	2	0	0	0	0	0	0	0	0	0	0	0	0	1	23
404.130859375	0.0999930794350803	827660	220	14	stim14_sf2_pattern2_cont2_shape1.png	1	52	0	649.695505679265	649.7954987587	0.0999930794350803	stim14_sf2_pattern2_cont2_shape1.png	2	2	2	1	1	1	0	0	0	0	0	0	0	0	0	0	0	0	1	23
404.630859375	0.10001829842804	828684	221	11	stim11_sf2_pattern1_cont2_shape2.png	1	53	0	650.195467557525	650.295485855953	0.10001829842804	stim11_sf2_pattern1_cont2_shape2.png	2	1	2	2	1	1	0	0	0	0	0	0	0	0	0	0	0	0	1	23
405.130859375	0.099997478100704	829708	222	6	stim06_sf1_pattern2_cont2_shape1.png	1	54	0	650.695479580521	650.795477058622	0.099997478100704	stim06_sf1_pattern2_cont2_shape1.png	1	2	2	1	1	4	0	0	0	0	0	0	0	0	0	0	0	0	1	23
405.630859375	0.0999930794350803	830732	223	0	stim00_sf1_pattern1_cont1_shape1.png	1	55	0	651.19547107644	651.295464155875	0.0999930794350803	stim00_sf1_pattern1_cont1_shape1.png	1	1	1	1	1	3	0	0	0	0	0	0	0	0	0	0	0	0	1	23
406.130859375	0.0999954254075419	831756	224	8	stim08_sf2_pattern1_cont1_shape1.png	1	56	0	651.695457880443	651.795453305851	0.0999954254075419	stim08_sf2_pattern1_cont1_shape1.png	2	1	1	1	1	2	0	0	0	0	0	0	0	0	0	0	0	0	1	23
406.630859375	0.0999948389071506	832780	225	9	stim09_sf2_pattern1_cont1_shape2.png	1	57	0	652.195445270947	652.295440109854	0.0999948389071506	stim09_sf2_pattern1_cont1_shape2.png	2	1	1	2	1	2	0	0	0	0	0	0	0	0	0	0	0	0	1	23
407.130859375	0.0999939591565635	833804	226	2	stim02_sf1_pattern1_cont2_shape1.png	1	58	0	652.695433541172	652.795427500329	0.0999939591565635	stim02_sf1_pattern1_cont2_shape1.png	1	1	2	1	1	4	0	0	0	0	0	0	0	0	0	0	0	0	1	23
407.630859375	0.0999960118788294	834828	227	7	stim07_sf1_pattern2_cont2_shape2.png	1	59	0	653.195422104647	653.295418116526	0.0999960118788294	stim07_sf1_pattern2_cont2_shape2.png	1	2	2	2	1	4	0	0	0	0	0	0	0	0	0	0	0	0	1	23
408.130859375	0.100000997044845	835852	228	10	stim10_sf2_pattern1_cont2_shape1.png	1	60	0	653.69540890865	653.795409905695	0.100000997044845	stim10_sf2_pattern1_cont2_shape1.png	2	1	2	1	1	1	0	0	0	0	0	0	0	0	0	0	0	0	1	23
408.630859375	0.0999913199921139	836876	229	5	stim05_sf1_pattern2_cont1_shape2.png	1	61	0	654.195401284291	654.295392604283	0.0999913199921139	stim05_sf1_pattern2_cont1_shape2.png	1	2	1	2	1	3	0	0	0	0	0	0	0	0	0	0	0	0	1	23
409.130859375	0.0999948389071506	837900	230	15	stim15_sf2_pattern2_cont2_shape2.png	1	62	0	654.695388381544	654.795383220451	0.0999948389071506	stim15_sf2_pattern2_cont2_shape2.png	2	2	2	2	1	1	0	0	0	0	0	0	0	0	0	0	0	0	1	23
409.630859375	0.099996598350117	838924	231	12	stim12_sf2_pattern2_cont1_shape1.png	1	63	0	655.195374892326	655.295371490676	0.099996598350117	stim12_sf2_pattern2_cont1_shape1.png	2	2	1	1	1	2	0	0	0	0	0	0	0	0	0	0	0	0	1	23
410.130859375	0.0999971848505083	839948	232	3	stim03_sf1_pattern1_cont2_shape2.png	1	64	0	655.695365215244	655.795362400095	0.0999971848505083	stim03_sf1_pattern1_cont2_shape2.png	1	1	2	2	1	4	0	0	0	0	0	0	0	0	0	0	0	0	1	23
410.630859375	0.0999965983792208	840972	233	2	stim02_sf1_pattern1_cont2_shape1.png	1	65	0	656.195351139526	656.295347737905	0.0999965983792208	stim02_sf1_pattern1_cont2_shape1.png	1	1	2	1	1	4	0	0	0	0	0	0	0	0	0	0	0	0	1	23
411.130859375	0.100022990343859	841996	234	4	stim04_sf1_pattern2_cont1_shape1.png	1	66	0	656.69531565698	656.795338647324	0.100022990343859	stim04_sf1_pattern2_cont1_shape1.png	1	2	1	1	1	3	0	0	0	0	0	0	0	0	0	0	0	0	1	23
411.630859375	0.100002170016523	843020	235	7	stim07_sf1_pattern2_cont2_shape2.png	1	67	0	657.195310671814	657.29531284183	0.100002170016523	stim07_sf1_pattern2_cont2_shape2.png	1	2	2	2	1	4	0	0	0	0	0	0	0	0	0	0	0	0	1	23
412.130859375	0.100022110622376	844044	236	0	stim00_sf1_pattern1_cont1_shape1.png	1	68	0	657.695294836623	657.795316947246	0.100022110622376	stim00_sf1_pattern1_cont1_shape1.png	1	1	1	1	1	3	0	0	0	0	0	0	0	0	0	0	0	0	1	23
412.630859375	0.0999957186286338	845068	237	12	stim12_sf2_pattern2_cont1_shape1.png	1	69	0	658.195281347376	658.295277066005	0.0999957186286338	stim12_sf2_pattern2_cont1_shape1.png	2	2	1	1	1	2	0	0	0	0	0	0	0	0	0	0	0	0	1	23
413.130859375	0.0999854551046155	846092	238	11	stim11_sf2_pattern1_cont2_shape2.png	1	70	0	658.695281347376	658.795266802481	0.0999854551046155	stim11_sf2_pattern1_cont2_shape2.png	2	1	2	2	1	1	0	0	0	0	0	0	0	0	0	0	0	0	1	23
413.630859375	0.0999986510723829	847116	239	9	stim09_sf2_pattern1_cont1_shape2.png	1	71	0	659.195216833643	659.295215484715	0.0999986510723829	stim09_sf2_pattern1_cont1_shape2.png	2	1	1	2	1	2	0	0	0	0	0	0	0	0	0	0	0	0	1	23
414.13037109375	0.099997478100704	848139	240	6	stim06_sf1_pattern2_cont2_shape1.png	1	72	0	659.695247624302	659.795245102403	0.099997478100704	stim06_sf1_pattern2_cont2_shape1.png	1	2	2	1	1	4	0	0	0	0	0	0	0	0	0	0	0	0	1	23
414.63037109375	0.099985161825316	849163	241	5	stim05_sf1_pattern2_cont1_shape2.png	1	73	0	660.195248504024	660.295233665849	0.099985161825316	stim05_sf1_pattern2_cont1_shape2.png	1	2	1	2	1	3	0	0	0	0	0	0	0	0	0	0	0	0	1	23
415.13037109375	0.0999895605200436	850187	242	14	stim14_sf2_pattern2_cont2_shape1.png	1	74	0	660.695257887826	660.795247448346	0.0999895605200436	stim14_sf2_pattern2_cont2_shape1.png	2	2	2	1	1	1	0	0	0	0	0	0	0	0	0	0	0	0	1	23
415.63037109375	0.0999948389071506	851211	243	8	stim08_sf2_pattern1_cont1_shape1.png	1	75	0	661.195241466165	661.295236305072	0.0999948389071506	stim08_sf2_pattern1_cont1_shape1.png	2	1	1	1	1	2	0	0	0	0	0	0	0	0	0	0	0	0	1	23
416.13037109375	0.100003342988202	852235	244	15	stim15_sf2_pattern2_cont2_shape2.png	1	76	0	661.695227683667	661.795231026656	0.100003342988202	stim15_sf2_pattern2_cont2_shape2.png	2	2	2	2	1	1	0	0	0	0	0	0	0	0	0	0	0	0	1	23
416.63037109375	0.0999951321573462	853259	245	1	stim01_sf1_pattern1_cont1_shape2.png	1	77	0	662.195223871502	662.295219003659	0.0999951321573462	stim01_sf1_pattern1_cont1_shape2.png	1	1	1	2	1	3	0	0	0	0	0	0	0	0	0	0	0	0	1	23
417.13037109375	0.0999960118788294	854283	246	13	stim13_sf2_pattern2_cont1_shape2.png	1	78	0	662.695202171424	662.795198183303	0.0999960118788294	stim13_sf2_pattern2_cont1_shape2.png	2	2	1	2	1	2	0	0	0	0	0	0	0	0	0	0	0	0	1	23
417.63037109375	0.099996598350117	855307	247	10	stim10_sf2_pattern1_cont2_shape1.png	1	79	0	663.195190734899	663.295187333249	0.099996598350117	stim10_sf2_pattern1_cont2_shape1.png	2	1	2	1	1	1	0	0	0	0	0	0	0	0	0	0	0	0	1	23
418.13037109375	0.100000410544453	856331	248	15	stim15_sf2_pattern2_cont2_shape2.png	1	80	0	663.695187509205	663.79518791975	0.100000410544453	stim15_sf2_pattern2_cont2_shape2.png	2	2	2	2	1	1	0	0	0	0	0	0	0	0	0	0	0	0	1	23
418.63037109375	0.0999919064634014	857355	249	6	stim06_sf1_pattern2_cont2_shape1.png	1	81	0	664.1951675686	664.295159475063	0.0999919064634014	stim06_sf1_pattern2_cont2_shape1.png	1	2	2	1	1	4	0	0	0	0	0	0	0	0	0	0	0	0	1	23
419.13037109375	0.0999921996844932	858379	250	14	stim14_sf2_pattern2_cont2_shape1.png	1	82	0	664.695157891547	664.795150091231	0.0999921996844932	stim14_sf2_pattern2_cont2_shape1.png	2	2	2	1	1	1	0	0	0	0	0	0	0	0	0	0	0	0	1	23
419.63037109375	0.0999968916003127	859403	251	13	stim13_sf2_pattern2_cont1_shape2.png	1	83	0	665.1951444023	665.2951412939	0.0999968916003127	stim13_sf2_pattern2_cont1_shape2.png	2	2	1	2	1	2	0	0	0	0	0	0	0	0	0	0	0	0	1	23
420.13037109375	0.0999965983792208	860427	252	0	stim00_sf1_pattern1_cont1_shape1.png	1	84	0	665.695135311718	665.795131910098	0.0999965983792208	stim00_sf1_pattern1_cont1_shape1.png	1	1	1	1	1	3	0	0	0	0	0	0	0	0	0	0	0	0	1	23
420.63037109375	0.100011847069254	861451	253	8	stim08_sf2_pattern1_cont1_shape1.png	1	85	0	666.195108040003	666.295119887072	0.100011847069254	stim08_sf2_pattern1_cont1_shape1.png	2	1	1	1	1	2	0	0	0	0	0	0	0	0	0	0	0	0	1	23
421.13037109375	0.0999965983792208	862475	254	3	stim03_sf1_pattern1_cont2_shape2.png	1	86	0	666.695110385946	666.795106984326	0.0999965983792208	stim03_sf1_pattern1_cont2_shape2.png	1	1	2	2	1	4	0	0	0	0	0	0	0	0	0	0	0	0	1	23
421.63037109375	0.0999945456569549	863499	255	4	stim04_sf1_pattern2_cont1_shape1.png	1	87	0	667.195099829172	667.295094374829	0.0999945456569549	stim04_sf1_pattern2_cont1_shape1.png	1	2	1	1	1	3	0	0	0	0	0	0	0	0	0	0	0	0	1	23
422.13037109375	0.099994252435863	864523	256	1	stim01_sf1_pattern1_cont1_shape2.png	1	88	0	667.695088685869	667.795082938304	0.099994252435863	stim01_sf1_pattern1_cont1_shape2.png	1	1	1	2	1	3	0	0	0	0	0	0	0	0	0	0	0	0	1	23
422.63037109375	0.0999945456569549	865547	257	5	stim05_sf1_pattern2_cont1_shape2.png	1	89	0	668.195075783122	668.295070328779	0.0999945456569549	stim05_sf1_pattern2_cont1_shape2.png	1	2	1	2	1	3	0	0	0	0	0	0	0	0	0	0	0	0	1	23
423.13037109375	0.0999710861360654	866571	258	9	stim09_sf2_pattern1_cont1_shape2.png	1	90	0	668.695062587125	668.795033673261	0.0999710861360654	stim09_sf2_pattern1_cont1_shape2.png	2	1	1	2	1	2	0	0	0	0	0	0	0	0	0	0	0	0	1	23
423.63037109375	0.0999951321573462	867595	259	7	stim07_sf1_pattern2_cont2_shape2.png	1	91	0	669.195053203322	669.29504833548	0.0999951321573462	stim07_sf1_pattern2_cont2_shape2.png	1	2	2	2	1	4	0	0	0	0	0	0	0	0	0	0	0	0	1	23
424.13037109375	0.0999942524067592	868619	260	12	stim12_sf2_pattern2_cont1_shape1.png	1	92	0	669.695041473547	669.795035725954	0.0999942524067592	stim12_sf2_pattern2_cont1_shape1.png	2	2	1	1	1	2	0	0	0	0	0	0	0	0	0	0	0	0	1	23
424.63037109375	0.0999945456569549	869643	261	2	stim02_sf1_pattern1_cont2_shape1.png	1	93	0	670.195029743772	670.295024289429	0.0999945456569549	stim02_sf1_pattern1_cont2_shape1.png	1	1	2	1	1	4	0	0	0	0	0	0	0	0	0	0	0	0	1	23
425.13037109375	0.0999995307938661	870667	262	10	stim10_sf2_pattern1_cont2_shape1.png	1	94	0	670.695014788333	670.795014319126	0.0999995307938661	stim10_sf2_pattern1_cont2_shape1.png	2	1	2	1	1	1	0	0	0	0	0	0	0	0	0	0	0	0	1	23
425.63037109375	0.0999960118788294	871691	263	11	stim11_sf2_pattern1_cont2_shape2.png	1	95	0	671.195008043695	671.295004055573	0.0999960118788294	stim11_sf2_pattern1_cont2_shape2.png	2	1	2	2	1	1	0	0	0	0	0	0	0	0	0	0	0	0	1	23
426.13037109375	0.09999953082297	872715	264	3	stim03_sf1_pattern1_cont2_shape2.png	1	96	0	671.694990449032	671.794989979855	0.09999953082297	stim03_sf1_pattern1_cont2_shape2.png	1	1	2	2	1	4	0	0	0	0	0	0	0	0	0	0	0	0	1	23
426.63037109375	0.0999916132132057	873739	265	6	stim06_sf1_pattern2_cont2_shape1.png	1	97	0	672.194963763817	672.29495537703	0.0999916132132057	stim06_sf1_pattern2_cont2_shape1.png	1	2	2	1	1	4	0	0	0	0	0	0	0	0	0	0	0	0	1	23
427.13037109375	0.099977830745047	874763	266	0	stim00_sf1_pattern1_cont1_shape1.png	1	98	0	672.694971974648	672.794949805393	0.099977830745047	stim00_sf1_pattern1_cont1_shape1.png	1	1	1	1	1	3	0	0	0	0	0	0	0	0	0	0	0	0	1	23
427.63037109375	0.100037652591709	875787	267	12	stim12_sf2_pattern2_cont1_shape1.png	1	99	0	673.194894851389	673.294932503981	0.100037652591709	stim12_sf2_pattern2_cont1_shape1.png	2	2	1	1	1	2	0	0	0	0	0	0	0	0	0	0	0	0	1	23
428.13037109375	0.0999995307938661	876811	268	9	stim09_sf2_pattern1_cont1_shape2.png	1	100	0	673.694924762327	673.794924293121	0.0999995307938661	stim09_sf2_pattern1_cont1_shape2.png	2	1	1	2	1	2	0	0	0	0	0	0	0	0	0	0	0	0	1	23
428.63037109375	0.0999992375436705	877835	269	4	stim04_sf1_pattern2_cont1_shape1.png	1	101	0	674.194914792024	674.294914029568	0.0999992375436705	stim04_sf1_pattern2_cont1_shape1.png	1	2	1	1	1	3	0	0	0	0	0	0	0	0	0	0	0	0	1	23
429.13037109375	0.0999880942690652	878859	270	7	stim07_sf1_pattern2_cont2_shape2.png	1	102	0	674.694920070411	674.79490816468	0.0999880942690652	stim07_sf1_pattern2_cont2_shape2.png	1	2	2	2	1	4	0	0	0	0	0	0	0	0	0	0	0	0	1	23
429.63037109375	0.0999957186286338	879883	271	10	stim10_sf2_pattern1_cont2_shape1.png	1	103	0	675.194891332474	675.294887051103	0.0999957186286338	stim10_sf2_pattern1_cont2_shape1.png	2	1	2	1	1	1	0	0	0	0	0	0	0	0	0	0	0	0	1	23
430.13037109375	0.0999971848505083	880907	272	2	stim02_sf1_pattern1_cont2_shape1.png	1	104	0	675.694896904111	675.794894088962	0.0999971848505083	stim02_sf1_pattern1_cont2_shape1.png	1	1	2	1	1	4	0	0	0	0	0	0	0	0	0	0	0	0	1	23
430.638671875	0.0999763644940685	881948	273	13	stim13_sf2_pattern2_cont1_shape2.png	1	105	0	676.203243809781	676.303220174275	0.0999763644940685	stim13_sf2_pattern2_cont1_shape2.png	2	2	1	2	1	2	0	0	0	0	0	0	0	0	0	0	0	0	1	23
431.138671875	0.099996598350117	882972	274	1	stim01_sf1_pattern1_cont1_shape2.png	1	106	0	676.703208620456	676.803205218806	0.099996598350117	stim01_sf1_pattern1_cont1_shape2.png	1	1	1	2	1	3	0	0	0	0	0	0	0	0	0	0	0	0	1	23
431.638671875	0.100038825534284	883996	275	5	stim05_sf1_pattern2_cont1_shape2.png	1	107	0	677.203156422969	677.303195248503	0.100038825534284	stim05_sf1_pattern2_cont1_shape2.png	1	2	1	2	1	3	0	0	0	0	0	0	0	0	0	0	0	0	1	23
432.138671875	0.0999971848505083	885020	276	11	stim11_sf2_pattern1_cont2_shape2.png	1	108	0	677.70316492705	677.803162111901	0.0999971848505083	stim11_sf2_pattern1_cont2_shape2.png	2	1	2	2	1	1	0	0	0	0	0	0	0	0	0	0	0	0	1	23
432.63818359375	0.0999924929346889	886043	277	15	stim15_sf2_pattern2_cont2_shape2.png	1	109	0	678.203163460828	678.303155953763	0.0999924929346889	stim15_sf2_pattern2_cont2_shape2.png	2	2	2	2	1	1	0	0	0	0	0	0	0	0	0	0	0	0	1	23
433.13818359375	0.0999930794350803	887067	278	8	stim08_sf2_pattern1_cont1_shape1.png	1	110	0	678.703146159416	678.803139238851	0.0999930794350803	stim08_sf2_pattern1_cont1_shape1.png	2	1	1	1	1	2	0	0	0	0	0	0	0	0	0	0	0	0	1	23
433.63818359375	0.0999901469913311	888091	279	14	stim14_sf2_pattern2_cont2_shape1.png	1	111	0	679.203132376948	679.303122523939	0.0999901469913311	stim14_sf2_pattern2_cont2_shape1.png	2	2	2	1	1	1	0	0	0	0	0	0	0	0	0	0	0	0	1	23
434.13818359375	0.100020351150306	889115	280	5	stim05_sf1_pattern2_cont1_shape2.png	1	112	0	679.703119180951	679.803139532101	0.100020351150306	stim05_sf1_pattern2_cont1_shape2.png	1	2	1	2	1	3	0	0	0	0	0	0	0	0	0	0	0	0	1	23
434.63818359375	0.100047329615336	890139	281	8	stim08_sf2_pattern1_cont1_shape1.png	1	113	0	680.203068742936	680.303116072551	0.100047329615336	stim08_sf2_pattern1_cont1_shape1.png	2	1	1	1	1	2	0	0	0	0	0	0	0	0	0	0	0	0	1	23
435.13818359375	0.100013606541324	891163	282	1	stim01_sf1_pattern1_cont1_shape2.png	1	114	0	680.703104518732	680.803118125274	0.100013606541324	stim01_sf1_pattern1_cont1_shape2.png	1	1	1	2	1	3	0	0	0	0	0	0	0	0	0	0	0	0	1	23
435.63818359375	0.0999945456569549	892187	283	7	stim07_sf1_pattern2_cont2_shape2.png	1	115	0	681.203113609314	681.303108154971	0.0999945456569549	stim07_sf1_pattern2_cont2_shape2.png	1	2	2	2	1	4	0	0	0	0	0	0	0	0	0	0	0	0	1	23
436.13818359375	0.0999983578221872	893211	284	3	stim03_sf1_pattern1_cont2_shape2.png	1	116	0	681.703103345761	681.803101703583	0.0999983578221872	stim03_sf1_pattern1_cont2_shape2.png	1	1	2	2	1	4	0	0	0	0	0	0	0	0	0	0	0	0	1	23
436.646484375	0.100001583516132	894252	285	15	stim15_sf2_pattern2_cont2_shape2.png	1	117	0	682.211375767365	682.311377350881	0.100001583516132	stim15_sf2_pattern2_cont2_shape2.png	2	2	2	2	1	1	0	0	0	0	0	0	0	0	0	0	0	0	1	23
437.146484375	0.100002463266719	895276	286	0	stim00_sf1_pattern1_cont1_shape1.png	1	118	0	682.711383391696	682.811385854962	0.100002463266719	stim00_sf1_pattern1_cont1_shape1.png	1	1	1	1	1	3	0	0	0	0	0	0	0	0	0	0	0	0	1	23
437.646484375	0.0999804699386004	896300	287	12	stim12_sf2_pattern2_cont1_shape1.png	1	119	0	683.211395121471	683.311375591409	0.0999804699386004	stim12_sf2_pattern2_cont1_shape1.png	2	2	1	1	1	2	0	0	0	0	0	0	0	0	0	0	0	0	1	23
438.146484375	0.100003636238398	897324	288	13	stim13_sf2_pattern2_cont1_shape2.png	1	120	0	683.711359638924	683.811363275163	0.100003636238398	stim13_sf2_pattern2_cont1_shape2.png	2	2	1	2	1	2	0	0	0	0	0	0	0	0	0	0	0	0	1	23
438.646484375	0.0999772442446556	898348	289	4	stim04_sf1_pattern2_cont1_shape1.png	1	121	0	684.211351721315	684.311328965559	0.0999772442446556	stim04_sf1_pattern2_cont1_shape1.png	1	2	1	1	1	3	0	0	0	0	0	0	0	0	0	0	0	0	1	23
439.146484375	0.0999963051290251	899372	290	11	stim11_sf2_pattern1_cont2_shape2.png	1	122	0	684.711336179374	684.811332484504	0.0999963051290251	stim11_sf2_pattern1_cont2_shape2.png	2	1	2	2	1	1	0	0	0	0	0	0	0	0	0	0	0	0	1	23
439.646484375	0.100010087597184	900396	291	10	stim10_sf2_pattern1_cont2_shape1.png	1	123	0	685.211338232097	685.311348319694	0.100010087597184	stim10_sf2_pattern1_cont2_shape1.png	2	1	2	1	1	1	0	0	0	0	0	0	0	0	0	0	0	0	1	23
440.146484375	0.100018298457144	901420	292	2	stim02_sf1_pattern1_cont2_shape1.png	1	124	0	685.711314479297	685.811332777754	0.100018298457144	stim02_sf1_pattern1_cont2_shape1.png	1	1	2	1	1	4	0	0	0	0	0	0	0	0	0	0	0	0	1	23
440.646484375	0.100000410544453	902444	293	9	stim09_sf2_pattern1_cont1_shape2.png	1	125	0	686.211336179374	686.311336589919	0.100000410544453	stim09_sf2_pattern1_cont1_shape2.png	2	1	1	2	1	2	0	0	0	0	0	0	0	0	0	0	0	0	1	23
441.146484375	0.0999963051290251	903468	294	14	stim14_sf2_pattern2_cont2_shape1.png	1	126	0	686.711320050934	686.811316356063	0.0999963051290251	stim14_sf2_pattern2_cont2_shape1.png	2	2	2	1	1	1	0	0	0	0	0	0	0	0	0	0	0	0	1	23
441.646484375	0.100046743144048	904492	295	6	stim06_sf1_pattern2_cont2_shape1.png	1	127	0	687.211263454781	687.311310197925	0.100046743144048	stim06_sf1_pattern2_cont2_shape1.png	1	2	2	1	1	4	0	0	0	0	0	0	0	0	0	0	0	0	1	23
442.146484375	0.0999998240440618	905516	296	12	stim12_sf2_pattern2_cont1_shape1.png	1	128	0	687.711297471134	687.811297295179	0.0999998240440618	stim12_sf2_pattern2_cont1_shape1.png	2	2	1	1	1	2	0	0	0	0	0	0	0	0	0	0	0	0	1	23
442.646484375	0.09999131996301	906540	297	3	stim03_sf1_pattern1_cont2_shape2.png	1	129	0	688.211297177884	688.311288497847	0.09999131996301	stim03_sf1_pattern1_cont2_shape2.png	1	1	2	2	1	4	0	0	0	0	0	0	0	0	0	0	0	0	1	23
443.146484375	0.0999951321282424	907564	298	2	stim02_sf1_pattern1_cont2_shape1.png	1	130	0	688.711271372391	688.811266504519	0.0999951321282424	stim02_sf1_pattern1_cont2_shape1.png	1	1	2	1	1	4	0	0	0	0	0	0	0	0	0	0	0	0	1	23
443.646484375	0.100003636209294	908588	299	13	stim13_sf2_pattern2_cont1_shape2.png	1	131	0	689.211258762894	689.311262399104	0.100003636209294	stim13_sf2_pattern2_cont1_shape2.png	2	2	1	2	1	2	0	0	0	0	0	0	0	0	0	0	0	0	1	23
444.146484375	0.099997478100704	909612	300	15	stim15_sf2_pattern2_cont2_shape2.png	1	132	0	689.711245273647	689.811242751748	0.099997478100704	stim15_sf2_pattern2_cont2_shape2.png	2	2	2	2	1	1	0	0	0	0	0	0	0	0	0	0	0	0	1	23
444.646484375	0.099996598350117	910636	301	6	stim06_sf1_pattern2_cont2_shape1.png	1	133	0	690.211237062817	690.311233661167	0.099996598350117	stim06_sf1_pattern2_cont2_shape1.png	1	2	2	1	1	4	0	0	0	0	0	0	0	0	0	0	0	0	1	23
445.146484375	0.0999951321282424	911660	302	4	stim04_sf1_pattern2_cont1_shape1.png	1	134	1	690.711220641126	690.811215773254	0.0999951321282424	stim04_sf1_pattern2_cont1_shape1.png	1	2	1	1	1	3	0	0	0	0	0	0	0	0	0	0	0	0	1	23
445.646484375	0.0999986510723829	912684	303	4	stim04_sf1_pattern2_cont1_shape1.png	1	135	1	691.211210377573	691.311209028645	0.0999986510723829	stim04_sf1_pattern2_cont1_shape1.png	1	2	1	1	1	3	0	0	0	0	0	0	0	0	0	0	0	0	1	23
446.146484375	0.099996598350117	913708	304	7	stim07_sf1_pattern2_cont2_shape2.png	1	136	2	691.711197768076	691.811194366426	0.099996598350117	stim07_sf1_pattern2_cont2_shape2.png	1	2	2	2	1	4	0	0	0	0	0	0	0	0	0	0	0	0	1	23
446.646484375	0.0999485063075554	914732	305	2	stim02_sf1_pattern1_cont2_shape1.png	1	137	2	692.21119248966	692.311140995967	0.0999485063075554	stim02_sf1_pattern1_cont2_shape1.png	1	1	2	1	1	4	0	0	0	0	0	0	0	0	0	0	0	0	1	23
447.146484375	0.0999924929637928	915756	306	11	stim11_sf2_pattern1_cont2_shape2.png	1	138	0	692.711178120691	692.811170613655	0.0999924929637928	stim11_sf2_pattern1_cont2_shape2.png	2	1	2	2	1	1	0	0	0	0	0	0	0	0	0	0	0	0	1	23
447.646484375	0.100005982181756	916780	307	14	stim14_sf2_pattern2_cont2_shape1.png	1	139	0	693.211164924694	693.311170906876	0.100005982181756	stim14_sf2_pattern2_cont2_shape1.png	2	2	2	1	1	1	0	0	0	0	0	0	0	0	0	0	0	0	1	23
448.146484375	0.0999995307938661	917804	308	7	stim07_sf1_pattern2_cont2_shape2.png	1	140	0	693.711160232808	693.811159763602	0.0999995307938661	stim07_sf1_pattern2_cont2_shape2.png	1	2	2	2	1	4	0	0	0	0	0	0	0	0	0	0	0	0	1	23
448.646484375	0.0999924929346889	918828	309	4	stim04_sf1_pattern2_cont1_shape1.png	1	141	0	694.211148796283	694.311141289218	0.0999924929346889	stim04_sf1_pattern2_cont1_shape1.png	1	2	1	1	1	3	0	0	0	0	0	0	0	0	0	0	0	0	1	23
449.146484375	0.100027975509875	919852	310	9	stim09_sf2_pattern1_cont1_shape2.png	1	142	0	694.711129148898	694.811157124408	0.100027975509875	stim09_sf2_pattern1_cont1_shape2.png	2	1	1	2	1	2	0	0	0	0	0	0	0	0	0	0	0	0	1	23
449.646484375	0.0999977713508997	920876	311	0	stim00_sf1_pattern1_cont1_shape1.png	1	143	0	695.211119178595	695.311116949946	0.0999977713508997	stim00_sf1_pattern1_cont1_shape1.png	1	1	1	1	1	3	0	0	0	0	0	0	0	0	0	0	0	0	1	23
450.146484375	0.0999945456569549	921900	312	5	stim05_sf1_pattern2_cont1_shape2.png	1	144	0	695.71110774207	695.811102287727	0.0999945456569549	stim05_sf1_pattern2_cont1_shape2.png	1	2	1	2	1	3	0	0	0	0	0	0	0	0	0	0	0	0	1	23
450.646484375	0.0999992375727743	922924	313	8	stim08_sf2_pattern1_cont1_shape1.png	1	145	0	696.211092786602	696.311092024174	0.0999992375727743	stim08_sf2_pattern1_cont1_shape1.png	2	1	1	1	1	2	0	0	0	0	0	0	0	0	0	0	0	0	1	23
451.14599609375	0.100000997044845	923947	314	10	stim10_sf2_pattern1_cont2_shape1.png	1	146	0	696.711079883855	696.8110808809	0.100000997044845	stim10_sf2_pattern1_cont2_shape1.png	2	1	2	1	1	1	0	0	0	0	0	0	0	0	0	0	0	0	1	23
451.64599609375	0.09999953082297	924971	315	1	stim01_sf1_pattern1_cont1_shape2.png	1	147	0	697.211070793273	697.311070324096	0.09999953082297	stim01_sf1_pattern1_cont1_shape2.png	1	1	1	2	1	3	0	0	0	0	0	0	0	0	0	0	0	0	1	23
452.14599609375	0.0999798834382091	925995	316	0	stim00_sf1_pattern1_cont1_shape1.png	1	148	0	697.711062289192	697.811042172631	0.0999798834382091	stim00_sf1_pattern1_cont1_shape1.png	1	1	1	1	1	3	0	0	0	0	0	0	0	0	0	0	0	0	1	23
452.64599609375	0.100029441731749	927019	317	14	stim14_sf2_pattern2_cont2_shape1.png	1	149	0	698.210998948431	698.311028390162	0.100029441731749	stim14_sf2_pattern2_cont2_shape1.png	2	2	2	1	1	1	0	0	0	0	0	0	0	0	0	0	0	0	1	23
453.14599609375	0.0999848685751203	928043	318	13	stim13_sf2_pattern2_cont1_shape2.png	1	150	0	698.711032671534	698.811017540109	0.0999848685751203	stim13_sf2_pattern2_cont1_shape2.png	2	2	1	2	1	2	0	0	0	0	0	0	0	0	0	0	0	0	1	23
453.64599609375	0.0999746050511021	929067	319	12	stim12_sf2_pattern2_cont1_shape1.png	1	151	0	699.211026513396	699.311001118447	0.0999746050511021	stim12_sf2_pattern2_cont1_shape1.png	2	2	1	1	1	2	0	0	0	0	0	0	0	0	0	0	0	0	1	23
454.14599609375	0.0999737253005151	930091	320	7	stim07_sf1_pattern2_cont2_shape2.png	1	152	0	699.711012437678	699.810986162978	0.0999737253005151	stim07_sf1_pattern2_cont2_shape2.png	1	2	2	2	1	4	0	0	0	0	0	0	0	0	0	0	0	0	1	23
454.64599609375	0.100017711956752	931115	321	6	stim06_sf1_pattern2_cont2_shape1.png	1	153	0	700.21095994694	700.310977658897	0.100017711956752	stim06_sf1_pattern2_cont2_shape1.png	1	2	2	1	1	4	0	0	0	0	0	0	0	0	0	0	0	0	1	23
455.14599609375	0.0999968916003127	932139	322	8	stim08_sf2_pattern1_cont1_shape1.png	1	154	0	700.71096727805	700.81096416965	0.0999968916003127	stim08_sf2_pattern1_cont1_shape1.png	2	1	1	1	1	2	0	0	0	0	0	0	0	0	0	0	0	0	1	23
455.64599609375	0.100011847069254	933163	323	10	stim10_sf2_pattern1_cont2_shape1.png	1	155	0	701.210954961804	701.310966808873	0.100011847069254	stim10_sf2_pattern1_cont2_shape1.png	2	1	2	1	1	1	0	0	0	0	0	0	0	0	0	0	0	0	1	23
456.14599609375	0.0999886807694566	934187	324	3	stim03_sf1_pattern1_cont2_shape2.png	1	156	0	701.710969330772	701.810958011542	0.0999886807694566	stim03_sf1_pattern1_cont2_shape2.png	1	1	2	2	1	4	0	0	0	0	0	0	0	0	0	0	0	0	1	23
456.64599609375	0.10000216998742	935211	325	15	stim15_sf2_pattern2_cont2_shape2.png	1	157	0	702.210957600997	702.310959770984	0.10000216998742	stim15_sf2_pattern2_cont2_shape2.png	2	2	2	2	1	1	0	0	0	0	0	0	0	0	0	0	0	0	1	23
457.14599609375	0.0999998240731657	936235	326	5	stim05_sf1_pattern2_cont1_shape2.png	1	158	0	702.710951149609	702.810950973682	0.0999998240731657	stim05_sf1_pattern2_cont1_shape2.png	1	2	1	2	1	3	0	0	0	0	0	0	0	0	0	0	0	0	1	23
457.64599609375	0.100026216037804	937259	327	1	stim01_sf1_pattern1_cont1_shape2.png	1	159	0	703.210909802176	703.310936018213	0.100026216037804	stim01_sf1_pattern1_cont1_shape2.png	1	1	1	2	1	3	0	0	0	0	0	0	0	0	0	0	0	0	1	23
458.14599609375	0.0999989443225786	938283	328	4	stim04_sf1_pattern2_cont1_shape1.png	1	160	0	703.710926517088	703.81092546141	0.0999989443225786	stim04_sf1_pattern2_cont1_shape1.png	1	2	1	1	1	3	0	0	0	0	0	0	0	0	0	0	0	0	1	23
458.64599609375	0.100019764679018	939307	329	11	stim11_sf2_pattern1_cont2_shape2.png	1	161	0	704.210886049375	704.310905814054	0.100019764679018	stim11_sf2_pattern1_cont2_shape2.png	2	1	2	2	1	1	0	0	0	0	0	0	0	0	0	0	0	0	1	23
459.14599609375	0.0999960118788294	940331	330	9	stim09_sf2_pattern1_cont1_shape2.png	1	162	0	704.710899538622	704.810895550501	0.0999960118788294	stim09_sf2_pattern1_cont1_shape2.png	2	1	1	2	1	2	0	0	0	0	0	0	0	0	0	0	0	0	1	23
459.64599609375	0.0999813496600837	941355	331	2	stim02_sf1_pattern1_cont2_shape1.png	1	163	0	705.210902764316	705.310884113976	0.0999813496600837	stim02_sf1_pattern1_cont2_shape1.png	1	1	2	1	1	4	0	0	0	0	0	0	0	0	0	0	0	0	1	23
474.44580078125	0.0999878010479733	971665	332	12	stim12_sf2_pattern2_cont1_shape1.png	2	0	0	720.01055386223	720.110541663278	0.0999878010479733	stim12_sf2_pattern2_cont1_shape1.png	2	2	1	1	1	2	0	0	0	0	0	0	0	0	0	0	0	0	1	23
474.94580078125	0.099993372685276	972689	333	2	stim02_sf1_pattern1_cont2_shape1.png	2	1	0	720.510545944649	720.610539317335	0.099993372685276	stim02_sf1_pattern1_cont2_shape1.png	1	1	2	1	1	4	0	0	0	0	0	0	0	0	0	0	0	0	1	23
475.4453125	0.0999980646010954	973712	334	1	stim01_sf1_pattern1_cont1_shape2.png	2	2	0	721.010518086434	721.110516151035	0.0999980646010954	stim01_sf1_pattern1_cont1_shape2.png	1	1	1	2	1	3	0	0	0	0	0	0	0	0	0	0	0	0	1	23
475.9453125	0.0999936659063678	974736	335	7	stim07_sf1_pattern2_cont2_shape2.png	2	3	0	721.510508702631	721.610502368538	0.0999936659063678	stim07_sf1_pattern2_cont2_shape2.png	1	2	2	2	1	4	0	0	0	0	0	0	0	0	0	0	0	0	1	23
476.4453125	0.0999763644940685	975760	336	6	stim06_sf1_pattern2_cont2_shape1.png	2	4	0	722.010496972856	722.11047333735	0.0999763644940685	stim06_sf1_pattern2_cont2_shape1.png	1	2	2	1	1	4	0	0	0	0	0	0	0	0	0	0	0	0	1	23
476.9453125	0.0999992375727743	976784	337	14	stim14_sf2_pattern2_cont2_shape1.png	2	5	0	722.510487295775	722.610486533347	0.0999992375727743	stim14_sf2_pattern2_cont2_shape1.png	2	2	2	1	1	1	0	0	0	0	0	0	0	0	0	0	0	0	1	23
477.4453125	0.0999954253784381	977808	338	8	stim08_sf2_pattern1_cont1_shape1.png	2	6	0	723.010473220056	723.110468645435	0.0999954253784381	stim08_sf2_pattern1_cont1_shape1.png	2	1	1	1	1	2	0	0	0	0	0	0	0	0	0	0	0	0	1	23
477.9453125	0.0999693266348913	978832	339	3	stim03_sf1_pattern1_cont2_shape2.png	2	7	0	723.510463249753	723.610432576388	0.0999693266348913	stim03_sf1_pattern1_cont2_shape2.png	1	1	2	2	1	4	0	0	0	0	0	0	0	0	0	0	0	0	1	23
478.4453125	0.0999983578221872	979856	340	15	stim15_sf2_pattern2_cont2_shape2.png	2	8	0	724.010448880785	724.110447238607	0.0999983578221872	stim15_sf2_pattern2_cont2_shape2.png	2	2	2	2	1	1	0	0	0	0	0	0	0	0	0	0	0	0	1	23
478.9453125	0.0999957186286338	980880	341	5	stim05_sf1_pattern2_cont1_shape2.png	2	9	0	724.510440376704	724.610436095332	0.0999957186286338	stim05_sf1_pattern2_cont1_shape2.png	1	2	1	2	1	3	0	0	0	0	0	0	0	0	0	0	0	0	1	23
479.4453125	0.0999968916003127	981904	342	13	stim13_sf2_pattern2_cont1_shape2.png	2	10	0	725.010427180707	725.110424072307	0.0999968916003127	stim13_sf2_pattern2_cont1_shape2.png	2	2	1	2	1	2	0	0	0	0	0	0	0	0	0	0	0	0	1	23
479.9453125	0.0999637549975887	982928	343	11	stim11_sf2_pattern1_cont2_shape2.png	2	11	0	725.510448001063	725.610411756061	0.0999637549975887	stim11_sf2_pattern1_cont2_shape2.png	2	1	2	2	1	1	0	0	0	0	0	0	0	0	0	0	0	0	1	23
480.4453125	0.100014193041716	983952	344	0	stim00_sf1_pattern1_cont1_shape1.png	2	12	0	726.010381727829	726.11039592087	0.100014193041716	stim00_sf1_pattern1_cont1_shape1.png	1	1	1	1	1	3	0	0	0	0	0	0	0	0	0	0	0	0	1	23
480.9453125	0.0999954254075419	984976	345	4	stim04_sf1_pattern2_cont1_shape1.png	2	13	0	726.510393457604	726.610388883011	0.0999954254075419	stim04_sf1_pattern2_cont1_shape1.png	1	2	1	1	1	3	0	0	0	0	0	0	0	0	0	0	0	0	1	23
481.4453125	0.0999960118788294	986000	346	10	stim10_sf2_pattern1_cont2_shape1.png	2	14	0	727.010381727829	727.110377739707	0.0999960118788294	stim10_sf2_pattern1_cont2_shape1.png	2	1	2	1	1	1	0	0	0	0	0	0	0	0	0	0	0	0	1	23
481.9453125	0.0999986511014868	987024	347	9	stim09_sf2_pattern1_cont1_shape2.png	2	15	0	727.510368531832	727.610367182933	0.0999986511014868	stim09_sf2_pattern1_cont1_shape2.png	2	1	1	2	1	2	0	0	0	0	0	0	0	0	0	0	0	0	1	23
482.4453125	0.100000997015741	988048	348	6	stim06_sf1_pattern2_cont2_shape1.png	2	16	0	728.010355335864	728.11035633288	0.100000997015741	stim06_sf1_pattern2_cont2_shape1.png	1	2	2	1	1	4	0	0	0	0	0	0	0	0	0	0	0	0	1	23
482.9453125	0.0999910267419182	989072	349	5	stim05_sf1_pattern2_cont1_shape2.png	2	17	0	728.510354456113	728.610345482855	0.0999910267419182	stim05_sf1_pattern2_cont1_shape2.png	1	2	1	2	1	3	0	0	0	0	0	0	0	0	0	0	0	0	1	23
483.4453125	0.0999713793571573	990096	350	0	stim00_sf1_pattern1_cont1_shape1.png	2	18	0	729.010333635786	729.110305015143	0.0999713793571573	stim00_sf1_pattern1_cont1_shape1.png	1	1	1	1	1	3	0	0	0	0	0	0	0	0	0	0	0	0	1	23
483.9453125	0.100000410544453	991120	351	7	stim07_sf1_pattern2_cont2_shape2.png	2	19	0	729.510300792404	729.610301202949	0.100000410544453	stim07_sf1_pattern2_cont2_shape2.png	1	2	2	2	1	4	0	0	0	0	0	0	0	0	0	0	0	0	1	23
484.4453125	0.0999936659354717	992144	352	3	stim03_sf1_pattern1_cont2_shape2.png	2	20	0	730.010296393739	730.110290059674	0.0999936659354717	stim03_sf1_pattern1_cont2_shape2.png	1	1	2	2	1	4	0	0	0	0	0	0	0	0	0	0	0	0	1	23
484.9453125	0.100003049738007	993168	353	10	stim10_sf2_pattern1_cont2_shape1.png	2	21	0	730.510275280161	730.610278329899	0.100003049738007	stim10_sf2_pattern1_cont2_shape1.png	2	1	2	1	1	1	0	0	0	0	0	0	0	0	0	0	0	0	1	23
485.4453125	0.0999948389071506	994192	354	1	stim01_sf1_pattern1_cont1_shape2.png	2	22	0	731.010264430108	731.110259269015	0.0999948389071506	stim01_sf1_pattern1_cont1_shape2.png	1	1	1	2	1	3	0	0	0	0	0	0	0	0	0	0	0	0	1	23
485.9453125	0.0999751915223897	995216	355	2	stim02_sf1_pattern1_cont2_shape1.png	2	23	0	731.510273813939	731.610249005462	0.0999751915223897	stim02_sf1_pattern1_cont2_shape1.png	1	1	2	1	1	4	0	0	0	0	0	0	0	0	0	0	0	0	1	23
486.4453125	0.100015952513786	996240	356	15	stim15_sf2_pattern2_cont2_shape2.png	2	24	0	732.01024273003	732.110258682544	0.100015952513786	stim15_sf2_pattern2_cont2_shape2.png	2	2	2	2	1	1	0	0	0	0	0	0	0	0	0	0	0	0	1	23
486.9453125	0.100009207875701	997264	357	12	stim12_sf2_pattern2_cont1_shape1.png	2	25	0	732.510248594917	732.610257802793	0.100009207875701	stim12_sf2_pattern2_cont1_shape1.png	2	2	1	1	1	2	0	0	0	0	0	0	0	0	0	0	0	0	1	23
487.4453125	0.0999951321573462	998288	358	11	stim11_sf2_pattern1_cont2_shape2.png	2	26	0	733.010244782752	733.110239914909	0.0999951321573462	stim11_sf2_pattern1_cont2_shape2.png	2	1	2	2	1	1	0	0	0	0	0	0	0	0	0	0	0	0	1	23
487.9453125	0.0999930794350803	999312	359	4	stim04_sf1_pattern2_cont1_shape1.png	2	27	0	733.510238917865	733.6102319973	0.0999930794350803	stim04_sf1_pattern2_cont1_shape1.png	1	2	1	1	1	3	0	0	0	0	0	0	0	0	0	0	0	0	1	23
488.4453125	0.0999945456569549	1000336	360	13	stim13_sf2_pattern2_cont1_shape2.png	2	28	0	734.010225721868	734.110220267525	0.0999945456569549	stim13_sf2_pattern2_cont1_shape2.png	2	2	1	2	1	2	0	0	0	0	0	0	0	0	0	0	0	0	1	23
488.9453125	0.0999963051290251	1001360	361	9	stim09_sf2_pattern1_cont1_shape2.png	2	29	0	734.510217511037	734.610213816166	0.0999963051290251	stim09_sf2_pattern1_cont1_shape2.png	2	1	1	2	1	2	0	0	0	0	0	0	0	0	0	0	0	0	1	23
489.4453125	0.0999702063854784	1002384	362	8	stim08_sf2_pattern1_cont1_shape1.png	2	30	0	735.010195517709	735.110165724094	0.0999702063854784	stim08_sf2_pattern1_cont1_shape1.png	2	1	1	1	1	2	0	0	0	0	0	0	0	0	0	0	0	0	1	23
489.9453125	0.0999968916294165	1003408	363	5	stim05_sf1_pattern2_cont1_shape2.png	2	31	1	735.510185254156	735.610182145785	0.0999968916294165	stim05_sf1_pattern2_cont1_shape2.png	1	2	1	2	1	3	0	0	0	0	0	0	0	0	0	0	0	0	1	23
490.4453125	0.0999875077977777	1004432	364	5	stim05_sf1_pattern2_cont1_shape2.png	2	32	1	736.010182908212	736.11017041601	0.0999875077977777	stim05_sf1_pattern2_cont1_shape2.png	1	2	1	2	1	3	0	0	0	0	0	0	0	0	0	0	0	0	1	23
490.9453125	0.0999954254075419	1005456	365	1	stim01_sf1_pattern1_cont1_shape2.png	2	33	2	736.510161794606	736.610157220013	0.0999954254075419	stim01_sf1_pattern1_cont1_shape2.png	1	1	1	2	1	3	0	0	0	0	0	0	0	0	0	0	0	0	1	23
491.4453125	0.0999992375436705	1006480	366	9	stim09_sf2_pattern1_cont1_shape2.png	2	34	2	737.010146839166	737.110146076709	0.0999992375436705	stim09_sf2_pattern1_cont1_shape2.png	2	1	1	2	1	2	0	0	0	0	0	0	0	0	0	0	0	0	1	23
491.9453125	0.0999933726561721	1007504	367	14	stim14_sf2_pattern2_cont2_shape1.png	2	35	0	737.510135402641	737.610128775297	0.0999933726561721	stim14_sf2_pattern2_cont2_shape1.png	2	2	2	1	1	1	0	0	0	0	0	0	0	0	0	0	0	0	1	23
492.4453125	0.0999980645719916	1008528	368	6	stim06_sf1_pattern2_cont2_shape1.png	2	36	0	738.010125139088	738.11012320366	0.0999980645719916	stim06_sf1_pattern2_cont2_shape1.png	1	2	2	1	1	4	0	0	0	0	0	0	0	0	0	0	0	0	1	23
492.94482421875	0.0999968916003127	1009551	369	15	stim15_sf2_pattern2_cont2_shape2.png	2	37	0	738.510113409313	738.610110300913	0.0999968916003127	stim15_sf2_pattern2_cont2_shape2.png	2	2	2	2	1	1	0	0	0	0	0	0	0	0	0	0	0	0	1	23
493.44482421875	0.0999725523288362	1010575	370	11	stim11_sf2_pattern1_cont2_shape2.png	2	38	0	739.010101386288	739.110073938617	0.0999725523288362	stim11_sf2_pattern1_cont2_shape2.png	2	1	2	2	1	1	0	0	0	0	0	0	0	0	0	0	0	0	1	23
493.94482421875	0.10000744840363	1011599	371	13	stim13_sf2_pattern2_cont1_shape2.png	2	39	0	739.510092588956	739.61010003736	0.10000744840363	stim13_sf2_pattern2_cont1_shape2.png	2	2	1	2	1	2	0	0	0	0	0	0	0	0	0	0	0	0	1	23
494.44482421875	0.0999954254075419	1012623	372	9	stim09_sf2_pattern1_cont1_shape2.png	2	40	0	740.01007968621	740.110075111617	0.0999954254075419	stim09_sf2_pattern1_cont1_shape2.png	2	1	1	2	1	2	0	0	0	0	0	0	0	0	0	0	0	0	1	23
494.94482421875	0.0999951321282424	1013647	373	12	stim12_sf2_pattern2_cont1_shape1.png	2	41	0	740.510068836185	740.610063968314	0.0999951321282424	stim12_sf2_pattern2_cont1_shape1.png	2	2	1	1	1	2	0	0	0	0	0	0	0	0	0	0	0	0	1	23
495.44482421875	0.099996598350117	1014671	374	3	stim03_sf1_pattern1_cont2_shape2.png	2	42	0	741.01005710641	741.110053704761	0.099996598350117	stim03_sf1_pattern1_cont2_shape2.png	1	1	2	2	1	4	0	0	0	0	0	0	0	0	0	0	0	0	1	23
495.94482421875	0.0999919064634014	1015695	375	14	stim14_sf2_pattern2_cont2_shape1.png	2	43	0	741.51004889555	741.610040802014	0.0999919064634014	stim14_sf2_pattern2_cont2_shape1.png	2	2	2	1	1	1	0	0	0	0	0	0	0	0	0	0	0	0	1	23
496.44482421875	0.100000703765545	1016719	376	10	stim10_sf2_pattern1_cont2_shape1.png	2	44	0	742.010032473889	742.110033177654	0.100000703765545	stim10_sf2_pattern1_cont2_shape1.png	2	1	2	1	1	1	0	0	0	0	0	0	0	0	0	0	0	0	1	23
496.94482421875	0.100002756487811	1017743	377	1	stim01_sf1_pattern1_cont1_shape2.png	2	45	0	742.510016638698	742.610019395186	0.100002756487811	stim01_sf1_pattern1_cont1_shape2.png	1	1	1	2	1	3	0	0	0	0	0	0	0	0	0	0	0	0	1	23
497.44482421875	0.0999986510723829	1018767	378	5	stim05_sf1_pattern2_cont1_shape2.png	2	46	0	743.01001018731	743.110008838383	0.0999986510723829	stim05_sf1_pattern2_cont1_shape2.png	1	2	1	2	1	3	0	0	0	0	0	0	0	0	0	0	0	0	1	23
497.94482421875	0.0999901469913311	1019791	379	8	stim08_sf2_pattern1_cont1_shape1.png	2	47	0	743.510004322423	743.609994469414	0.0999901469913311	stim08_sf2_pattern1_cont1_shape1.png	2	1	1	1	1	2	0	0	0	0	0	0	0	0	0	0	0	0	1	23
498.44482421875	0.0999924929637928	1020815	380	2	stim02_sf1_pattern1_cont2_shape1.png	2	48	0	744.009989660204	744.109982153168	0.0999924929637928	stim02_sf1_pattern1_cont2_shape1.png	1	1	2	1	1	4	0	0	0	0	0	0	0	0	0	0	0	0	1	23
498.94482421875	0.099996598350117	1021839	381	4	stim04_sf1_pattern2_cont1_shape1.png	2	49	0	744.509951538465	744.609948136815	0.099996598350117	stim04_sf1_pattern2_cont1_shape1.png	1	2	1	1	1	3	0	0	0	0	0	0	0	0	0	0	0	0	1	23
499.44482421875	0.100004515959881	1022863	382	7	stim07_sf1_pattern2_cont2_shape2.png	2	50	0	745.009938635718	745.109943151678	0.100004515959881	stim07_sf1_pattern2_cont2_shape2.png	1	2	2	2	1	4	0	0	0	0	0	0	0	0	0	0	0	0	1	23
499.94482421875	0.0999869213264901	1023887	383	0	stim00_sf1_pattern1_cont1_shape1.png	2	51	0	745.50995505738	745.609941978706	0.0999869213264901	stim00_sf1_pattern1_cont1_shape1.png	1	1	1	1	1	3	0	0	0	0	0	0	0	0	0	0	0	0	1	23
500.44482421875	0.0999980645719916	1024911	384	3	stim03_sf1_pattern1_cont2_shape2.png	2	52	0	746.009915176168	746.10991324074	0.0999980645719916	stim03_sf1_pattern1_cont2_shape2.png	1	1	2	2	1	4	0	0	0	0	0	0	0	0	0	0	0	0	1	23
500.94482421875	0.0999989443225786	1025935	385	0	stim00_sf1_pattern1_cont1_shape1.png	2	53	0	746.509905792336	746.609904736659	0.0999989443225786	stim00_sf1_pattern1_cont1_shape1.png	1	1	1	1	1	3	0	0	0	0	0	0	0	0	0	0	0	0	1	23
501.44482421875	0.099975778022781	1026959	386	5	stim05_sf1_pattern2_cont1_shape2.png	2	54	0	747.009914882918	747.10989066094	0.099975778022781	stim05_sf1_pattern2_cont1_shape2.png	1	2	1	2	1	3	0	0	0	0	0	0	0	0	0	0	0	0	1	23
501.94482421875	0.0999751915223897	1027983	387	12	stim12_sf2_pattern2_cont1_shape1.png	2	55	0	747.509902566671	747.609877758194	0.0999751915223897	stim12_sf2_pattern2_cont1_shape1.png	2	2	1	1	1	2	0	0	0	0	0	0	0	0	0	0	0	0	1	23
502.44482421875	0.100002463266719	1029007	388	9	stim09_sf2_pattern1_cont1_shape2.png	2	56	0	748.009895822033	748.1098982853	0.100002463266719	stim09_sf2_pattern1_cont1_shape2.png	2	1	1	2	1	2	0	0	0	0	0	0	0	0	0	0	0	0	1	23
502.94482421875	0.100014486262808	1030031	389	6	stim06_sf1_pattern2_cont2_shape1.png	2	57	0	748.509866790846	748.609881277109	0.100014486262808	stim06_sf1_pattern2_cont2_shape1.png	1	2	2	1	1	4	0	0	0	0	0	0	0	0	0	0	0	0	1	23
503.44482421875	0.0999951321282424	1031055	390	13	stim13_sf2_pattern2_cont1_shape2.png	2	58	0	749.009880573343	749.109875705471	0.0999951321282424	stim13_sf2_pattern2_cont1_shape2.png	2	2	1	2	1	2	0	0	0	0	0	0	0	0	0	0	0	0	1	23
503.94482421875	0.0999995307938661	1032079	391	1	stim01_sf1_pattern1_cont1_shape2.png	2	59	0	749.509864738153	749.609864268947	0.0999995307938661	stim01_sf1_pattern1_cont1_shape2.png	1	1	1	2	1	3	0	0	0	0	0	0	0	0	0	0	0	0	1	23
504.44482421875	0.0999968916003127	1033103	392	8	stim08_sf2_pattern1_cont1_shape1.png	2	60	0	750.009857407043	750.109854298644	0.0999968916003127	stim08_sf2_pattern1_cont1_shape1.png	2	1	1	1	1	2	0	0	0	0	0	0	0	0	0	0	0	0	1	23
504.94482421875	0.0999945456569549	1034127	393	2	stim02_sf1_pattern1_cont2_shape1.png	2	61	0	750.509838052909	750.609832598566	0.0999945456569549	stim02_sf1_pattern1_cont2_shape1.png	1	1	2	1	1	4	0	0	0	0	0	0	0	0	0	0	0	0	1	23
505.44482421875	0.0999828158819582	1035151	394	15	stim15_sf2_pattern2_cont2_shape2.png	2	62	0	751.00982339069	751.109806206572	0.0999828158819582	stim15_sf2_pattern2_cont2_shape2.png	2	2	2	2	1	1	0	0	0	0	0	0	0	0	0	0	0	0	1	23
505.94482421875	0.0999836956034414	1036175	395	14	stim14_sf2_pattern2_cont2_shape1.png	2	63	0	751.509825443412	751.609809139016	0.0999836956034414	stim14_sf2_pattern2_cont2_shape1.png	2	2	2	1	1	1	0	0	0	0	0	0	0	0	0	0	0	0	1	23
506.44482421875	0.09999953082297	1037199	396	10	stim10_sf2_pattern1_cont2_shape1.png	2	64	0	752.00980022439	752.109799755213	0.09999953082297	stim10_sf2_pattern1_cont2_shape1.png	2	1	2	1	1	1	0	0	0	0	0	0	0	0	0	0	0	0	1	23
506.94482421875	0.0999992375727743	1038223	397	4	stim04_sf1_pattern2_cont1_shape1.png	2	65	0	752.509788787866	752.609788025438	0.0999992375727743	stim04_sf1_pattern2_cont1_shape1.png	1	2	1	1	1	3	0	0	0	0	0	0	0	0	0	0	0	0	1	23
507.44482421875	0.0999980645719916	1039247	398	7	stim07_sf1_pattern2_cont2_shape2.png	2	66	0	753.009776178369	753.109774242941	0.0999980645719916	stim07_sf1_pattern2_cont2_shape2.png	1	2	2	2	1	4	0	0	0	0	0	0	0	0	0	0	0	0	1	23
507.94482421875	0.0999748983012978	1040271	399	11	stim11_sf2_pattern1_cont2_shape2.png	2	67	0	753.509768260759	753.609743159061	0.0999748983012978	stim11_sf2_pattern1_cont2_shape2.png	2	1	2	2	1	1	0	0	0	0	0	0	0	0	0	0	0	0	1	23
508.44482421875	0.0999904402415268	1041295	400	6	stim06_sf1_pattern2_cont2_shape1.png	2	68	0	754.009760049928	754.10975049017	0.0999904402415268	stim06_sf1_pattern2_cont2_shape1.png	1	2	2	1	1	4	0	0	0	0	0	0	0	0	0	0	0	0	1	23
508.94482421875	0.0999951321573462	1042319	401	9	stim09_sf2_pattern1_cont1_shape2.png	2	69	0	754.50974568096	754.609740813117	0.0999951321573462	stim09_sf2_pattern1_cont1_shape2.png	2	1	1	2	1	2	0	0	0	0	0	0	0	0	0	0	0	0	1	23
509.44482421875	0.100022697093664	1043343	402	4	stim04_sf1_pattern2_cont1_shape1.png	2	70	0	755.009708732192	755.109731429286	0.100022697093664	stim04_sf1_pattern2_cont1_shape1.png	1	2	1	1	1	3	0	0	0	0	0	0	0	0	0	0	0	0	1	23
509.94482421875	0.100016832206165	1044367	403	13	stim13_sf2_pattern2_cont1_shape2.png	2	71	0	755.50970697272	755.609723804926	0.100016832206165	stim13_sf2_pattern2_cont1_shape2.png	2	2	1	2	1	2	0	0	0	0	0	0	0	0	0	0	0	0	1	23
510.4443359375	0.0999960118788294	1045390	404	7	stim07_sf1_pattern2_cont2_shape2.png	2	72	0	756.009709025413	756.109705037292	0.0999960118788294	stim07_sf1_pattern2_cont2_shape2.png	1	2	2	2	1	4	0	0	0	0	0	0	0	0	0	0	0	0	1	23
510.9443359375	0.100016832206165	1046414	405	11	stim11_sf2_pattern1_cont2_shape2.png	2	73	0	756.509677941533	756.609694773739	0.100016832206165	stim11_sf2_pattern1_cont2_shape2.png	2	1	2	2	1	1	0	0	0	0	0	0	0	0	0	0	0	0	1	23
511.4443359375	0.0999992375727743	1047438	406	14	stim14_sf2_pattern2_cont2_shape1.png	2	74	0	757.009682926669	757.109682164242	0.0999992375727743	stim14_sf2_pattern2_cont2_shape1.png	2	2	2	1	1	1	0	0	0	0	0	0	0	0	0	0	0	0	1	23
511.9443359375	0.099997478100704	1048462	407	2	stim02_sf1_pattern1_cont2_shape1.png	2	75	0	757.509675302339	757.60967278044	0.099997478100704	stim02_sf1_pattern1_cont2_shape1.png	1	1	2	1	1	4	0	0	0	0	0	0	0	0	0	0	0	0	1	23
512.4443359375	0.10001653895597	1049486	408	3	stim03_sf1_pattern1_cont2_shape2.png	2	76	0	758.009639233293	758.109655772249	0.10001653895597	stim03_sf1_pattern1_cont2_shape2.png	1	1	2	2	1	4	0	0	0	0	0	0	0	0	0	0	0	0	1	23
512.9443359375	0.0999831091321539	1050510	409	15	stim15_sf2_pattern2_cont2_shape2.png	2	77	0	758.509664745536	758.609647854668	0.0999831091321539	stim15_sf2_pattern2_cont2_shape2.png	2	2	2	2	1	1	0	0	0	0	0	0	0	0	0	0	0	0	1	23
513.4443359375	0.0999960118788294	1051534	410	0	stim00_sf1_pattern1_cont1_shape1.png	2	78	0	759.009640113014	759.109636124893	0.0999960118788294	stim00_sf1_pattern1_cont1_shape1.png	1	1	1	1	1	3	0	0	0	0	0	0	0	0	0	0	0	0	1	23
513.9443359375	0.0999992375727743	1052558	411	12	stim12_sf2_pattern2_cont1_shape1.png	2	79	0	759.509631315683	759.609630553256	0.0999992375727743	stim12_sf2_pattern2_cont1_shape1.png	2	2	1	1	1	2	0	0	0	0	0	0	0	0	0	0	0	0	1	23
514.4443359375	0.100002170016523	1053582	412	8	stim08_sf2_pattern1_cont1_shape1.png	2	80	0	760.009593193914	760.109595363931	0.100002170016523	stim08_sf2_pattern1_cont1_shape1.png	2	1	1	1	1	2	0	0	0	0	0	0	0	0	0	0	0	0	1	23
514.9443359375	0.100000410544453	1054606	413	10	stim10_sf2_pattern1_cont2_shape1.png	2	81	0	760.50958263714	760.609583047684	0.100000410544453	stim10_sf2_pattern1_cont2_shape1.png	2	1	2	1	1	1	0	0	0	0	0	0	0	0	0	0	0	0	1	23
515.4443359375	0.0999963051290251	1055630	414	1	stim01_sf1_pattern1_cont1_shape2.png	2	82	0	761.009569441143	761.109565746272	0.0999963051290251	stim01_sf1_pattern1_cont1_shape2.png	1	1	1	2	1	3	0	0	0	0	0	0	0	0	0	0	0	0	1	23
515.9443359375	0.0999951321282424	1056654	415	5	stim05_sf1_pattern2_cont1_shape2.png	2	83	0	761.509558297868	761.609553429997	0.0999951321282424	stim05_sf1_pattern2_cont1_shape2.png	1	2	1	2	1	3	0	0	0	0	0	0	0	0	0	0	0	0	1	23
516.4443359375	0.0999977713217959	1057678	416	15	stim15_sf2_pattern2_cont2_shape2.png	2	84	0	762.009545101871	762.109542873193	0.0999977713217959	stim15_sf2_pattern2_cont2_shape2.png	2	2	2	2	1	1	0	0	0	0	0	0	0	0	0	0	0	0	1	23
516.9443359375	0.0999813496600837	1058702	417	0	stim00_sf1_pattern1_cont1_shape1.png	2	85	0	762.509547741065	762.609529090725	0.0999813496600837	stim00_sf1_pattern1_cont1_shape1.png	1	1	1	1	1	3	0	0	0	0	0	0	0	0	0	0	0	0	1	23
517.4443359375	0.100018884928431	1059726	418	11	stim11_sf2_pattern1_cont2_shape2.png	2	86	0	763.009522815293	763.109541700222	0.100018884928431	stim11_sf2_pattern1_cont2_shape2.png	2	1	2	2	1	1	0	0	0	0	0	0	0	0	0	0	0	0	1	23
517.9443359375	0.0999983578221872	1060750	419	6	stim06_sf1_pattern2_cont2_shape1.png	2	87	0	763.509540116705	763.609538474528	0.0999983578221872	stim06_sf1_pattern2_cont2_shape1.png	1	2	2	1	1	4	0	0	0	0	0	0	0	0	0	0	0	0	1	23
518.4443359375	0.0999998240731657	1061774	420	12	stim12_sf2_pattern2_cont1_shape1.png	2	88	0	764.009526627458	764.109526451532	0.0999998240731657	stim12_sf2_pattern2_cont1_shape1.png	2	2	1	1	1	2	0	0	0	0	0	0	0	0	0	0	0	0	1	23
518.9443359375	0.100023283594055	1062798	421	1	stim01_sf1_pattern1_cont1_shape2.png	2	89	0	764.50953630454	764.609559588134	0.100023283594055	stim01_sf1_pattern1_cont1_shape2.png	1	1	1	2	1	3	0	0	0	0	0	0	0	0	0	0	0	0	1	23
519.4443359375	0.100000410544453	1063822	422	13	stim13_sf2_pattern2_cont1_shape2.png	2	90	0	765.009504047659	765.109504458203	0.100000410544453	stim13_sf2_pattern2_cont1_shape2.png	2	2	1	2	1	2	0	0	0	0	0	0	0	0	0	0	0	0	1	23
519.9443359375	0.0999957186286338	1064846	423	4	stim04_sf1_pattern2_cont1_shape1.png	2	91	0	765.509499355743	765.609495074372	0.0999957186286338	stim04_sf1_pattern2_cont1_shape1.png	1	2	1	1	1	3	0	0	0	0	0	0	0	0	0	0	0	0	1	23
520.4443359375	0.0999977713217959	1065870	424	8	stim08_sf2_pattern1_cont1_shape1.png	2	92	0	766.009478535416	766.109476306738	0.0999977713217959	stim08_sf2_pattern1_cont1_shape1.png	2	1	1	1	1	2	0	0	0	0	0	0	0	0	0	0	0	0	1	23
520.9443359375	0.0999980645719916	1066894	425	9	stim09_sf2_pattern1_cont1_shape2.png	2	93	0	766.509465632669	766.609463697241	0.0999980645719916	stim09_sf2_pattern1_cont1_shape2.png	2	1	1	2	1	2	0	0	0	0	0	0	0	0	0	0	0	0	1	23
521.4443359375	0.0999848686042242	1067918	426	3	stim03_sf1_pattern1_cont2_shape2.png	2	94	0	767.009467685362	767.109452553967	0.0999848686042242	stim03_sf1_pattern1_cont2_shape2.png	1	1	2	2	1	4	0	0	0	0	0	0	0	0	0	0	0	0	1	23
521.9443359375	0.0999963051290251	1068942	427	2	stim02_sf1_pattern1_cont2_shape1.png	2	95	0	767.509442173119	767.609438478248	0.0999963051290251	stim02_sf1_pattern1_cont2_shape1.png	1	1	2	1	1	4	0	0	0	0	0	0	0	0	0	0	0	0	1	23
522.4443359375	0.100000703794649	1069966	428	5	stim05_sf1_pattern2_cont1_shape2.png	2	96	0	768.009429856844	768.109430560638	0.100000703794649	stim05_sf1_pattern2_cont1_shape2.png	1	2	1	2	1	3	0	0	0	0	0	0	0	0	0	0	0	0	1	23
522.9443359375	0.0999963050999213	1070990	429	10	stim10_sf2_pattern1_cont2_shape1.png	2	97	0	768.50941930007	768.609415605169	0.0999963050999213	stim10_sf2_pattern1_cont2_shape1.png	2	1	2	1	1	1	0	0	0	0	0	0	0	0	0	0	0	0	1	23
523.4443359375	0.0999951321282424	1072014	430	7	stim07_sf1_pattern2_cont2_shape2.png	2	98	0	769.009408743266	769.109403875394	0.0999951321282424	stim07_sf1_pattern2_cont2_shape2.png	1	2	2	2	1	4	0	0	0	0	0	0	0	0	0	0	0	0	1	23
523.9443359375	0.099993372685276	1073038	431	14	stim14_sf2_pattern2_cont2_shape1.png	2	99	0	769.509397893213	769.609391265898	0.099993372685276	stim14_sf2_pattern2_cont2_shape1.png	2	2	2	1	1	1	0	0	0	0	0	0	0	0	0	0	0	0	1	23
524.4443359375	0.0999971848505083	1074062	432	15	stim15_sf2_pattern2_cont2_shape2.png	2	100	0	770.009385576966	770.109382761817	0.0999971848505083	stim15_sf2_pattern2_cont2_shape2.png	2	2	2	2	1	1	0	0	0	0	0	0	0	0	0	0	0	0	1	23
524.9443359375	0.099997478100704	1075086	433	11	stim11_sf2_pattern1_cont2_shape2.png	2	101	0	770.509376486385	770.609373964486	0.099997478100704	stim11_sf2_pattern1_cont2_shape2.png	2	1	2	2	1	1	0	0	0	0	0	0	0	0	0	0	0	0	1	23
525.4443359375	0.0999957186286338	1076110	434	3	stim03_sf1_pattern1_cont2_shape2.png	2	102	0	771.009363876889	771.109359595517	0.0999957186286338	stim03_sf1_pattern1_cont2_shape2.png	1	1	2	2	1	4	0	0	0	0	0	0	0	0	0	0	0	0	1	23
525.9443359375	0.0999948389071506	1077134	435	4	stim04_sf1_pattern2_cont1_shape1.png	2	103	0	771.509351853863	771.60934669277	0.0999948389071506	stim04_sf1_pattern2_cont1_shape1.png	1	2	1	1	1	3	0	0	0	0	0	0	0	0	0	0	0	0	1	23
526.4443359375	0.100000410544453	1078158	436	1	stim01_sf1_pattern1_cont1_shape2.png	2	104	0	772.009336311923	772.109336722468	0.100000410544453	stim01_sf1_pattern1_cont1_shape2.png	1	1	1	2	1	3	0	0	0	0	0	0	0	0	0	0	0	0	1	23
526.9443359375	0.0999977713508997	1079182	437	2	stim02_sf1_pattern1_cont2_shape1.png	2	105	0	772.509328980814	772.609326752165	0.0999977713508997	stim02_sf1_pattern1_cont2_shape1.png	1	1	2	1	1	4	0	0	0	0	0	0	0	0	0	0	0	0	1	23
527.4443359375	0.100000117294258	1080206	438	6	stim06_sf1_pattern2_cont2_shape1.png	2	106	0	773.009315491567	773.109315608861	0.100000117294258	stim06_sf1_pattern2_cont2_shape1.png	1	2	2	1	1	4	0	0	0	0	0	0	0	0	0	0	0	0	1	23
527.94384765625	0.100015659234487	1081229	439	9	stim09_sf2_pattern1_cont1_shape2.png	2	107	0	773.509288806352	773.609304465586	0.100015659234487	stim09_sf2_pattern1_cont1_shape2.png	2	1	1	2	1	2	0	0	0	0	0	0	0	0	0	0	0	0	1	23
528.44384765625	0.0999907334626187	1082253	440	0	stim00_sf1_pattern1_cont1_shape1.png	2	108	0	774.009296137461	774.109286870924	0.0999907334626187	stim00_sf1_pattern1_cont1_shape1.png	1	1	1	1	1	3	0	0	0	0	0	0	0	0	0	0	0	0	1	23
528.94384765625	0.100022403872572	1083277	441	5	stim05_sf1_pattern2_cont1_shape2.png	2	109	0	774.509259188664	774.609281592537	0.100022403872572	stim05_sf1_pattern2_cont1_shape2.png	1	2	1	2	1	3	0	0	0	0	0	0	0	0	0	0	0	0	1	23
529.44384765625	0.0999883875192609	1084301	442	7	stim07_sf1_pattern2_cont2_shape2.png	2	110	0	775.009265933302	775.109254320821	0.0999883875192609	stim07_sf1_pattern2_cont2_shape2.png	1	2	2	2	1	4	0	0	0	0	0	0	0	0	0	0	0	0	1	23
529.94384765625	0.0999989443225786	1085325	443	12	stim12_sf2_pattern2_cont1_shape1.png	2	111	0	775.509236902115	775.609235846438	0.0999989443225786	stim12_sf2_pattern2_cont1_shape1.png	2	2	1	1	1	2	0	0	0	0	0	0	0	0	0	0	0	0	1	23
530.44384765625	0.10000216998742	1086349	444	14	stim14_sf2_pattern2_cont2_shape1.png	2	112	0	776.009223999368	776.109226169356	0.10000216998742	stim14_sf2_pattern2_cont2_shape1.png	2	2	2	1	1	1	0	0	0	0	0	0	0	0	0	0	0	0	1	23
530.94384765625	0.0999983578221872	1087373	445	10	stim10_sf2_pattern1_cont2_shape1.png	2	113	0	776.509239834559	776.609238192381	0.0999983578221872	stim10_sf2_pattern1_cont2_shape1.png	2	1	2	1	1	1	0	0	0	0	0	0	0	0	0	0	0	0	1	23
531.44384765625	0.0999754848016892	1088397	446	8	stim08_sf2_pattern1_cont1_shape1.png	2	114	0	777.009221360146	777.109196844947	0.0999754848016892	stim08_sf2_pattern1_cont1_shape1.png	2	1	1	1	1	2	0	0	0	0	0	0	0	0	0	0	0	0	1	23
531.94384765625	0.0999886807694566	1089421	447	13	stim13_sf2_pattern2_cont1_shape2.png	2	115	0	777.509198193846	777.609186874615	0.0999886807694566	stim13_sf2_pattern2_cont1_shape2.png	2	2	1	2	1	2	0	0	0	0	0	0	0	0	0	0	0	0	1	23
532.44384765625	0.100027682259679	1090445	448	7	stim07_sf1_pattern2_cont2_shape2.png	2	116	0	778.009176787018	778.109204469278	0.100027682259679	stim07_sf1_pattern2_cont2_shape2.png	1	2	2	2	1	4	0	0	0	0	0	0	0	0	0	0	0	0	1	23
