onset	duration	onsetsample	eventnumber	stimnumber	stimname	blocknumber	trialnumber	istarget	time_stimon	time_stimoff	stimdur	stimfilename	spatial_freq	pattern	contrast	shape	is_fast_stream	category	ppt_1_response	ppt_1_keypressed	ppt_1_rt	ppt_1_correct	ppt_2_response	ppt_2_keypressed	ppt_2_rt	ppt_2_correct	button1	button2	button3	button4	task_part_number	subjectnr
191.3876953125	0.100038209944614	391962	0	11	stim11_sf2_pattern1_cont2_shape2.png	0	0	0	288.678956701358	288.778994911303	0.100038209944614	stim11_sf2_pattern1_cont2_shape2.png	2	1	2	2	1	4	0	0	0	0	0	0	0	0	0	0	0	0	1	17
191.89599609375	0.10001709623748	393003	1	1	stim01_sf1_pattern1_cont1_shape2.png	0	1	0	289.187331658508	289.287348754745	0.10001709623748	stim01_sf1_pattern1_cont1_shape2.png	1	1	1	2	1	4	0	0	0	0	0	0	0	0	0	0	0	0	1	17
192.39599609375	0.104799937362714	394027	2	14	stim14_sf2_pattern2_cont2_shape1.png	0	2	0	289.707518268488	289.812318205851	0.104799937362714	stim14_sf2_pattern2_cont2_shape1.png	2	2	2	1	1	1	0	0	0	0	0	0	0	0	0	0	0	0	1	17
192.9208984375	0.0999939298089885	395102	3	3	stim03_sf1_pattern1_cont2_shape2.png	0	3	0	290.212305948171	290.31229987798	0.0999939298089885	stim03_sf1_pattern1_cont2_shape2.png	1	1	2	2	1	4	0	0	0	0	0	0	0	0	0	0	0	0	1	17
193.4208984375	0.0999959825307997	396126	4	12	stim12_sf2_pattern2_cont1_shape1.png	0	4	0	290.712299936629	290.81229591916	0.0999959825307997	stim12_sf2_pattern2_cont1_shape1.png	2	2	1	1	1	1	0	0	0	0	0	0	0	0	0	0	0	0	1	17
193.9208984375	0.100000087973967	397150	5	10	stim10_sf2_pattern1_cont2_shape1.png	0	5	0	291.212283074988	291.312283162962	0.100000087973967	stim10_sf2_pattern1_cont2_shape1.png	2	1	2	1	1	2	0	0	0	0	0	0	0	0	0	0	0	0	1	17
194.4208984375	0.100006246138491	398174	6	15	stim15_sf2_pattern2_cont2_shape2.png	0	6	0	291.712275303971	291.81228155011	0.100006246138491	stim15_sf2_pattern2_cont2_shape2.png	2	2	2	2	1	3	0	0	0	0	0	0	0	0	0	0	0	0	1	17
194.9208984375	0.099934400885104	399198	7	7	stim07_sf1_pattern2_cont2_shape2.png	0	7	0	292.212328528108	292.312262928993	0.099934400885104	stim07_sf1_pattern2_cont2_shape2.png	1	2	2	2	1	3	0	0	0	0	0	0	0	0	0	0	0	0	1	17
195.4208984375	0.0999857189231079	400222	8	5	stim05_sf1_pattern2_cont1_shape2.png	0	8	0	292.712265626856	292.812251345779	0.0999857189231079	stim05_sf1_pattern2_cont1_shape2.png	1	2	1	2	1	3	0	0	0	0	0	0	0	0	0	0	0	0	1	17
195.9208984375	0.100059030405646	401246	9	13	stim13_sf2_pattern2_cont1_shape2.png	0	9	0	293.212225598786	293.312284629192	0.100059030405646	stim13_sf2_pattern2_cont1_shape2.png	2	2	1	2	1	3	0	0	0	0	0	0	0	0	0	0	0	0	1	17
196.4208984375	0.0999651917081792	402270	10	2	stim02_sf1_pattern1_cont2_shape1.png	0	10	0	293.712235129279	293.812200320987	0.0999651917081792	stim02_sf1_pattern1_cont2_shape1.png	1	1	2	1	1	2	0	0	0	0	0	0	0	0	0	0	0	0	1	17
196.9208984375	0.10000038122007	403294	11	6	stim06_sf1_pattern2_cont2_shape1.png	0	11	0	294.212223546064	294.312223927284	0.10000038122007	stim06_sf1_pattern2_cont2_shape1.png	1	2	2	1	1	1	0	0	0	0	0	0	0	0	0	0	0	0	1	17
197.4208984375	0.0999924635798379	404318	12	0	stim00_sf1_pattern1_cont1_shape1.png	0	12	0	294.712221639966	294.812214103546	0.0999924635798379	stim00_sf1_pattern1_cont1_shape1.png	1	1	1	1	1	2	0	0	0	0	0	0	0	0	0	0	0	0	1	17
197.9208984375	0.099997155514302	405342	13	4	stim04_sf1_pattern2_cont1_shape1.png	0	13	0	295.212206831046	295.312203986561	0.099997155514302	stim04_sf1_pattern2_cont1_shape1.png	1	2	1	1	1	1	0	0	0	0	0	0	0	0	0	0	0	0	1	17
198.4208984375	0.0999780945289785	406366	14	8	stim08_sf2_pattern1_cont1_shape1.png	0	14	0	295.712215775047	295.812193869576	0.0999780945289785	stim08_sf2_pattern1_cont1_shape1.png	2	1	1	1	1	2	0	0	0	0	0	0	0	0	0	0	0	0	1	17
198.9208984375	0.099997155514302	407390	15	9	stim09_sf2_pattern1_cont1_shape2.png	0	15	0	296.212186303831	296.312183459346	0.099997155514302	stim09_sf2_pattern1_cont1_shape2.png	2	1	1	2	1	4	0	0	0	0	0	0	0	0	0	0	0	0	1	17
199.4208984375	0.0999907041041297	408414	16	8	stim08_sf2_pattern1_cont1_shape1.png	0	16	0	296.712184690979	296.812175395083	0.0999907041041297	stim08_sf2_pattern1_cont1_shape1.png	2	1	1	1	1	2	0	0	0	0	0	0	0	0	0	0	0	0	1	17
199.9208984375	0.0999951027929455	409438	17	3	stim03_sf1_pattern1_cont2_shape2.png	0	17	0	297.212169002321	297.312164105114	0.0999951027929455	stim03_sf1_pattern1_cont2_shape2.png	1	1	2	2	1	4	0	0	0	0	0	0	0	0	0	0	0	0	1	17
200.4208984375	0.0999484766898604	410462	18	4	stim04_sf1_pattern2_cont1_shape1.png	0	18	0	297.712160938058	297.812109414748	0.0999484766898604	stim04_sf1_pattern2_cont1_shape1.png	1	2	1	1	1	1	0	0	0	0	0	0	0	0	0	0	0	0	1	17
200.9208984375	0.0999924635798379	411486	19	11	stim11_sf2_pattern1_cont2_shape2.png	0	19	0	298.212148768352	298.312141231932	0.0999924635798379	stim11_sf2_pattern1_cont2_shape2.png	2	1	2	2	1	4	0	0	0	0	0	0	0	0	0	0	0	0	1	17
201.4208984375	0.0999942230550914	412510	20	1	stim01_sf1_pattern1_cont1_shape2.png	0	20	0	298.712142463565	298.81213668662	0.0999942230550914	stim01_sf1_pattern1_cont1_shape2.png	1	1	1	2	1	4	0	0	0	0	0	0	0	0	0	0	0	0	1	17
201.9208984375	0.100002433941427	413534	21	13	stim13_sf2_pattern2_cont1_shape2.png	0	21	0	299.212130293859	299.3121327278	0.100002433941427	stim13_sf2_pattern2_cont1_shape2.png	2	2	1	2	1	3	0	0	0	0	0	0	0	0	0	0	0	0	1	17
202.4208984375	0.0999898243662756	414558	22	14	stim14_sf2_pattern2_cont2_shape1.png	0	22	0	299.712123109333	299.8121129337	0.0999898243662756	stim14_sf2_pattern2_cont2_shape1.png	2	2	2	1	1	1	0	0	0	0	0	0	0	0	0	0	0	0	1	17
202.92041015625	0.0999757485619739	415581	23	9	stim09_sf2_pattern1_cont1_shape2.png	0	23	0	300.212106834184	300.312082582746	0.0999757485619739	stim09_sf2_pattern1_cont1_shape2.png	2	1	1	2	1	4	0	0	0	0	0	0	0	0	0	0	0	0	1	17
203.42041015625	0.100024427385961	416605	24	6	stim06_sf1_pattern2_cont2_shape1.png	0	24	0	300.712080588673	300.812105016059	0.100024427385961	stim06_sf1_pattern2_cont2_shape1.png	1	2	2	1	1	1	0	0	0	0	0	0	0	0	0	0	0	0	1	17
203.92041015625	0.100027359845171	417629	25	12	stim12_sf2_pattern2_cont1_shape1.png	0	25	0	301.212069591951	301.312096951796	0.100027359845171	stim12_sf2_pattern2_cont1_shape1.png	2	2	1	1	1	1	0	0	0	0	0	0	0	0	0	0	0	0	1	17
204.42041015625	0.0999549281004875	418653	26	7	stim07_sf1_pattern2_cont2_shape2.png	0	26	0	301.712083814379	301.812038742479	0.0999549281004875	stim07_sf1_pattern2_cont2_shape2.png	1	2	2	2	1	3	0	0	0	0	0	0	0	0	0	0	0	0	1	17
204.92041015625	0.099963432232471	419677	27	5	stim05_sf1_pattern2_cont1_shape2.png	0	27	0	302.212083961002	302.312047393234	0.099963432232471	stim05_sf1_pattern2_cont1_shape2.png	1	2	1	2	1	3	0	0	0	0	0	0	0	0	0	0	0	0	1	17
205.42041015625	0.100000381219616	420701	28	0	stim00_sf1_pattern1_cont1_shape1.png	0	28	0	302.712065633131	302.81206601435	0.100000381219616	stim00_sf1_pattern1_cont1_shape1.png	1	1	1	1	1	2	0	0	0	0	0	0	0	0	0	0	0	0	1	17
205.92041015625	0.099997448760405	421725	29	10	stim10_sf2_pattern1_cont2_shape1.png	0	29	0	303.212056102638	303.312053551399	0.099997448760405	stim10_sf2_pattern1_cont2_shape1.png	2	1	2	1	1	2	0	0	0	0	0	0	0	0	0	0	0	0	1	17
206.42041015625	0.0999948095468426	422749	30	15	stim15_sf2_pattern2_cont2_shape2.png	0	30	0	303.712049211359	303.812044020906	0.0999948095468426	stim15_sf2_pattern2_cont2_shape2.png	2	2	2	2	1	3	0	0	0	0	0	0	0	0	0	0	0	0	1	17
206.92041015625	0.100013870532621	423773	31	2	stim02_sf1_pattern1_cont2_shape1.png	0	31	0	304.212037628145	304.312051498677	0.100013870532621	stim02_sf1_pattern1_cont2_shape1.png	1	1	2	1	1	2	0	0	0	0	0	0	0	0	0	0	0	0	1	17
207.42041015625	0.100051699257165	424797	32	3	stim03_sf1_pattern1_cont2_shape2.png	0	32	0	304.712009036667	304.812060735924	0.100051699257165	stim03_sf1_pattern1_cont2_shape2.png	1	1	2	2	1	4	0	0	0	0	0	0	0	0	0	0	0	0	1	17
207.92041015625	0.0999977420065079	425821	33	0	stim00_sf1_pattern1_cont1_shape1.png	0	33	0	305.212018273913	305.31201601592	0.0999977420065079	stim00_sf1_pattern1_cont1_shape1.png	1	1	1	1	1	2	0	0	0	0	0	0	0	0	0	0	0	0	1	17
208.42041015625	0.0999637254785739	426845	34	8	stim08_sf2_pattern1_cont1_shape1.png	0	34	0	305.71200874342	305.811972468899	0.0999637254785739	stim08_sf2_pattern1_cont1_shape1.png	2	1	1	1	1	2	0	0	0	0	0	0	0	0	0	0	0	0	1	17
208.92041015625	0.100000087973967	427869	35	9	stim09_sf2_pattern1_cont1_shape2.png	0	35	0	306.212010649519	306.312010737493	0.100000087973967	stim09_sf2_pattern1_cont1_shape2.png	2	1	1	2	1	4	0	0	0	0	0	0	0	0	0	0	0	0	1	17
209.42041015625	0.0999953960385938	428893	36	12	stim12_sf2_pattern2_cont1_shape1.png	0	36	0	306.711989682435	306.811985078474	0.0999953960385938	stim12_sf2_pattern2_cont1_shape1.png	2	2	1	1	1	1	0	0	0	0	0	0	0	0	0	0	0	0	1	17
209.92041015625	0.0999651917077244	429917	37	5	stim05_sf1_pattern2_cont1_shape2.png	0	37	0	307.211993054763	307.311958246471	0.0999651917077244	stim05_sf1_pattern2_cont1_shape2.png	1	2	1	2	1	3	0	0	0	0	0	0	0	0	0	0	0	0	1	17
210.42041015625	0.0999775080372274	430941	38	10	stim10_sf2_pattern1_cont2_shape1.png	0	38	0	307.711971794433	307.811949302471	0.0999775080372274	stim10_sf2_pattern1_cont2_shape1.png	2	1	2	1	1	2	0	0	0	0	0	0	0	0	0	0	0	0	1	17
210.92041015625	0.0999948095472973	431965	39	4	stim04_sf1_pattern2_cont1_shape1.png	0	39	0	308.211962557186	308.311957366734	0.0999948095472973	stim04_sf1_pattern2_cont1_shape1.png	1	2	1	1	1	1	0	0	0	0	0	0	0	0	0	0	0	0	1	17
211.42041015625	0.0999736958401627	432989	40	7	stim07_sf1_pattern2_cont2_shape2.png	0	40	0	308.711951560464	308.811925256304	0.0999736958401627	stim07_sf1_pattern2_cont2_shape2.png	1	2	2	2	1	3	0	0	0	0	0	0	0	0	0	0	0	0	1	17
211.92041015625	0.0999851324313568	434013	41	14	stim14_sf2_pattern2_cont2_shape1.png	0	41	0	309.211952880071	309.311938012502	0.0999851324313568	stim14_sf2_pattern2_cont2_shape1.png	2	2	2	1	1	1	0	0	0	0	0	0	0	0	0	0	0	0	1	17
212.42041015625	0.0999710566266003	435037	42	2	stim02_sf1_pattern1_cont2_shape1.png	0	42	0	309.711933672462	309.811904729089	0.0999710566266003	stim02_sf1_pattern1_cont2_shape1.png	1	1	2	1	1	2	0	0	0	0	0	0	0	0	0	0	0	0	1	17
212.92041015625	0.0999965690225508	436061	43	11	stim11_sf2_pattern1_cont2_shape2.png	0	43	0	310.211925314953	310.311921883976	0.0999965690225508	stim11_sf2_pattern1_cont2_shape2.png	2	1	2	2	1	4	0	0	0	0	0	0	0	0	0	0	0	0	1	17
213.42041015625	0.0999997947278644	437085	44	1	stim01_sf1_pattern1_cont1_shape2.png	0	44	0	310.711912558755	310.811912353483	0.0999997947278644	stim01_sf1_pattern1_cont1_shape2.png	1	1	1	2	1	4	0	0	0	0	0	0	0	0	0	0	0	0	1	17
213.92041015625	0.0999939298089885	438109	45	13	stim13_sf2_pattern2_cont1_shape2.png	0	45	0	311.211906547214	311.311900477023	0.0999939298089885	stim13_sf2_pattern2_cont1_shape2.png	2	2	1	2	1	3	0	0	0	0	0	0	0	0	0	0	0	0	1	17
214.42041015625	0.0999871851527132	439133	46	6	stim06_sf1_pattern2_cont2_shape1.png	0	46	0	311.711895843737	311.81188302889	0.0999871851527132	stim06_sf1_pattern2_cont2_shape1.png	1	2	2	1	1	1	0	0	0	0	0	0	0	0	0	0	0	0	1	17
214.92041015625	0.0999951027929455	440157	47	10	stim10_sf2_pattern1_cont2_shape1.png	0	47	1	312.21188660649	312.311881709283	0.0999951027929455	stim10_sf2_pattern1_cont2_shape1.png	2	1	2	1	1	2	0	0	0	0	0	0	0	0	0	0	0	0	1	17
215.42041015625	0.0999490631816116	441181	48	10	stim10_sf2_pattern1_cont2_shape1.png	0	48	1	312.711887632851	312.811836696033	0.0999490631816116	stim10_sf2_pattern1_cont2_shape1.png	2	1	2	1	1	2	0	0	0	0	0	0	0	0	0	0	0	0	1	17
215.92041015625	0.099997155514302	442205	49	0	stim00_sf1_pattern1_cont1_shape1.png	0	49	2	313.211866079275	313.31186323479	0.099997155514302	stim00_sf1_pattern1_cont1_shape1.png	1	1	1	1	1	2	0	0	0	0	0	0	0	0	0	0	0	0	1	17
216.42041015625	0.100034104501901	443229	50	12	stim12_sf2_pattern2_cont1_shape1.png	0	50	2	313.711816960582	313.811851065084	0.100034104501901	stim12_sf2_pattern2_cont1_shape1.png	2	2	1	1	1	1	0	0	0	0	0	0	0	0	0	0	0	0	1	17
216.92041015625	0.100003606924929	444253	51	15	stim15_sf2_pattern2_cont2_shape2.png	0	51	0	314.211827957304	314.311831564229	0.100003606924929	stim15_sf2_pattern2_cont2_shape2.png	2	2	2	2	1	3	0	0	0	0	0	0	0	0	0	0	0	0	1	17
217.42041015625	0.100004193417135	445277	52	13	stim13_sf2_pattern2_cont1_shape2.png	0	52	0	314.711815201106	314.811819394523	0.100004193417135	stim13_sf2_pattern2_cont1_shape2.png	2	2	1	2	1	3	0	0	0	0	0	0	0	0	0	0	0	0	1	17
217.92041015625	0.0999953960390485	446301	53	1	stim01_sf1_pattern1_cont1_shape2.png	0	53	0	315.211804204384	315.311799600423	0.0999953960390485	stim01_sf1_pattern1_cont1_shape2.png	1	1	1	2	1	4	0	0	0	0	0	0	0	0	0	0	0	0	1	17
218.42041015625	0.099997448760405	447325	54	2	stim02_sf1_pattern1_cont2_shape1.png	0	54	0	315.711794673891	315.811792122652	0.099997448760405	stim02_sf1_pattern1_cont2_shape1.png	1	1	2	1	1	2	0	0	0	0	0	0	0	0	0	0	0	0	1	17
218.92041015625	0.0999959825307997	448349	55	15	stim15_sf2_pattern2_cont2_shape2.png	0	55	0	316.211795993498	316.311791976029	0.0999959825307997	stim15_sf2_pattern2_cont2_shape2.png	2	2	2	2	1	3	0	0	0	0	0	0	0	0	0	0	0	0	1	17
219.42041015625	0.0999965690225508	449373	56	9	stim09_sf2_pattern1_cont1_shape2.png	0	56	0	316.711776785889	316.811773354912	0.0999965690225508	stim09_sf2_pattern1_cont1_shape2.png	2	1	1	2	1	4	0	0	0	0	0	0	0	0	0	0	0	0	1	17
219.92041015625	0.099998621744362	450397	57	11	stim11_sf2_pattern1_cont2_shape2.png	0	57	0	317.211766962151	317.311765583895	0.099998621744362	stim11_sf2_pattern1_cont2_shape2.png	2	1	2	2	1	4	0	0	0	0	0	0	0	0	0	0	0	0	1	17
220.419921875	0.100033811255798	451420	58	12	stim12_sf2_pattern2_cont1_shape1.png	0	58	0	317.711765056052	317.811798867308	0.100033811255798	stim12_sf2_pattern2_cont1_shape1.png	2	2	1	1	1	1	0	0	0	0	0	0	0	0	0	0	0	0	1	17
220.919921875	0.100017389483583	452444	59	0	stim00_sf1_pattern1_cont1_shape1.png	0	59	0	318.211783970415	318.311801359898	0.100017389483583	stim00_sf1_pattern1_cont1_shape1.png	1	1	1	1	1	2	0	0	0	0	0	0	0	0	0	0	0	0	1	17
221.419921875	0.100020908434999	453468	60	14	stim14_sf2_pattern2_cont2_shape1.png	0	60	0	318.711775906152	318.811796814587	0.100020908434999	stim14_sf2_pattern2_cont2_shape1.png	2	2	2	1	1	1	0	0	0	0	0	0	0	0	0	0	0	0	1	17
221.919921875	0.0999936365633403	454492	61	6	stim06_sf1_pattern2_cont2_shape1.png	0	61	0	319.211759924248	319.311753560812	0.0999936365633403	stim06_sf1_pattern2_cont2_shape1.png	1	2	2	1	1	1	0	0	0	0	0	0	0	0	0	0	0	0	1	17
222.419921875	0.0999989149900102	455516	62	3	stim03_sf1_pattern1_cont2_shape2.png	0	62	0	319.711755672182	319.811754587172	0.0999989149900102	stim03_sf1_pattern1_cont2_shape2.png	1	1	2	2	1	4	0	0	0	0	0	0	0	0	0	0	0	0	1	17
222.919921875	0.10004642083095	456540	63	4	stim04_sf1_pattern2_cont1_shape1.png	0	63	0	320.211737051066	320.311783471897	0.10004642083095	stim04_sf1_pattern2_cont1_shape1.png	1	2	1	1	1	1	0	0	0	0	0	0	0	0	0	0	0	0	1	17
223.419921875	0.100015336762226	457564	64	7	stim07_sf1_pattern2_cont2_shape2.png	0	64	0	320.711707873096	320.811723209858	0.100015336762226	stim07_sf1_pattern2_cont2_shape2.png	1	2	2	2	1	3	0	0	0	0	0	0	0	0	0	0	0	0	1	17
223.919921875	0.0999909973497779	458588	65	10	stim10_sf2_pattern1_cont2_shape1.png	0	65	0	321.211724734737	321.311715732087	0.0999909973497779	stim10_sf2_pattern1_cont2_shape1.png	2	1	2	1	1	2	0	0	0	0	0	0	0	0	0	0	0	0	1	17
224.419921875	0.099997155514302	459612	66	8	stim08_sf2_pattern1_cont1_shape1.png	0	66	0	321.711708752834	321.811705908348	0.099997155514302	stim08_sf2_pattern1_cont1_shape1.png	2	1	1	1	1	2	0	0	0	0	0	0	0	0	0	0	0	0	1	17
224.919921875	0.0999939298094432	460636	67	5	stim05_sf1_pattern2_cont1_shape2.png	0	67	0	322.211699808833	322.311693738642	0.0999939298094432	stim05_sf1_pattern2_cont1_shape2.png	1	2	1	2	1	3	0	0	0	0	0	0	0	0	0	0	0	0	1	17
225.419921875	0.100020908434999	461660	68	11	stim11_sf2_pattern1_cont2_shape2.png	0	68	0	322.711665938928	322.811686847363	0.100020908434999	stim11_sf2_pattern1_cont2_shape2.png	2	1	2	2	1	4	0	0	0	0	0	0	0	0	0	0	0	0	1	17
225.919921875	0.0999907041041297	462684	69	13	stim13_sf2_pattern2_cont1_shape2.png	0	69	0	323.21168485329	323.311675557394	0.0999907041041297	stim13_sf2_pattern2_cont1_shape2.png	2	2	1	2	1	3	0	0	0	0	0	0	0	0	0	0	0	0	1	17
226.419921875	0.0999962757769026	463708	70	8	stim08_sf2_pattern1_cont1_shape1.png	0	70	0	323.711670630862	323.811666906639	0.0999962757769026	stim08_sf2_pattern1_cont1_shape1.png	2	1	1	1	1	2	0	0	0	0	0	0	0	0	0	0	0	0	1	17
226.919921875	0.0999959825303449	464732	71	0	stim00_sf1_pattern1_cont1_shape1.png	0	71	0	324.211663153092	324.311659135622	0.0999959825303449	stim00_sf1_pattern1_cont1_shape1.png	1	1	1	1	1	2	0	0	0	0	0	0	0	0	0	0	0	0	1	17
227.419921875	0.0999860121692109	465756	72	3	stim03_sf1_pattern1_cont2_shape2.png	0	72	0	324.711652449615	324.811638461784	0.0999860121692109	stim03_sf1_pattern1_cont2_shape2.png	1	1	2	2	1	4	0	0	0	0	0	0	0	0	0	0	0	0	1	17
227.919921875	0.0999965690225508	466780	73	6	stim06_sf1_pattern2_cont2_shape1.png	0	73	0	325.211642039385	325.311638608407	0.0999965690225508	stim06_sf1_pattern2_cont2_shape1.png	1	2	2	1	1	1	0	0	0	0	0	0	0	0	0	0	0	0	1	17
228.419921875	0.0999904108580267	467804	74	1	stim01_sf1_pattern1_cont1_shape2.png	0	74	0	325.711641599516	325.811632010374	0.0999904108580267	stim01_sf1_pattern1_cont1_shape2.png	1	1	1	2	1	4	0	0	0	0	0	0	0	0	0	0	0	0	1	17
228.919921875	0.099998914990465	468828	75	14	stim14_sf2_pattern2_cont2_shape1.png	0	75	0	326.211623858137	326.311622773127	0.099998914990465	stim14_sf2_pattern2_cont2_shape1.png	2	2	2	1	1	1	0	0	0	0	0	0	0	0	0	0	0	0	1	17
229.419921875	0.0999833729556485	469852	76	12	stim12_sf2_pattern2_cont1_shape1.png	0	76	0	326.711616380366	326.811599753321	0.0999833729556485	stim12_sf2_pattern2_cont1_shape1.png	2	2	1	1	1	1	0	0	0	0	0	0	0	0	0	0	0	0	1	17
229.919921875	0.0999930500711343	470876	77	2	stim02_sf1_pattern1_cont2_shape1.png	0	77	0	327.211608902594	327.311601952666	0.0999930500711343	stim02_sf1_pattern1_cont2_shape1.png	1	1	2	1	1	2	0	0	0	0	0	0	0	0	0	0	0	0	1	17
230.419921875	0.099986891907065	471900	78	4	stim04_sf1_pattern2_cont1_shape1.png	0	78	0	327.711598199118	327.811585091025	0.099986891907065	stim04_sf1_pattern2_cont1_shape1.png	1	2	1	1	1	1	0	0	0	0	0	0	0	0	0	0	0	0	1	17
230.919921875	0.0999980352526109	472924	79	15	stim15_sf2_pattern2_cont2_shape2.png	0	79	0	328.211588375379	328.311586410632	0.0999980352526109	stim15_sf2_pattern2_cont2_shape2.png	2	2	2	2	1	3	0	0	0	0	0	0	0	0	0	0	0	0	1	17
231.419921875	0.0999939298094432	473948	80	5	stim05_sf1_pattern2_cont1_shape2.png	0	80	0	328.711580311116	328.811574240925	0.0999939298094432	stim05_sf1_pattern2_cont1_shape2.png	1	2	1	2	1	3	0	0	0	0	0	0	0	0	0	0	0	0	1	17
231.919921875	0.0999953960385938	474972	81	10	stim10_sf2_pattern1_cont2_shape1.png	0	81	0	329.21156960764	329.311565003678	0.0999953960385938	stim10_sf2_pattern1_cont2_shape1.png	2	1	2	1	1	2	0	0	0	0	0	0	0	0	0	0	0	0	1	17
232.419921875	0.100010058335101	475996	82	7	stim07_sf1_pattern2_cont2_shape2.png	0	82	0	329.711541309407	329.811551367743	0.100010058335101	stim07_sf1_pattern2_cont2_shape2.png	1	2	2	2	1	3	0	0	0	0	0	0	0	0	0	0	0	0	1	17
232.919921875	0.0999754553154162	477020	83	9	stim09_sf2_pattern1_cont1_shape2.png	0	83	0	330.211554652097	330.311530107413	0.0999754553154162	stim09_sf2_pattern1_cont1_shape2.png	2	1	1	2	1	4	0	0	0	0	0	0	0	0	0	0	0	0	1	17
233.419921875	0.0999965690225508	478044	84	13	stim13_sf2_pattern2_cont1_shape2.png	0	84	0	330.711543655375	330.811540224398	0.0999965690225508	stim13_sf2_pattern2_cont1_shape2.png	2	2	1	2	1	3	0	0	0	0	0	0	0	0	0	0	0	0	1	17
233.919921875	0.0999473037063581	479068	85	3	stim03_sf1_pattern1_cont2_shape2.png	0	85	0	331.211530899177	331.311478202883	0.0999473037063581	stim03_sf1_pattern1_cont2_shape2.png	1	1	2	2	1	4	0	0	0	0	0	0	0	0	0	0	0	0	1	17
234.419921875	0.0999962757764479	480092	86	2	stim02_sf1_pattern1_cont2_shape1.png	0	86	0	331.71149790901	331.811494184786	0.0999962757764479	stim02_sf1_pattern1_cont2_shape1.png	1	1	2	1	1	2	0	0	0	0	0	0	0	0	0	0	0	0	1	17
234.919921875	0.0999936365633403	481116	87	11	stim11_sf2_pattern1_cont2_shape2.png	0	87	0	332.211490431238	332.311484067802	0.0999936365633403	stim11_sf2_pattern1_cont2_shape2.png	2	1	2	2	1	4	0	0	0	0	0	0	0	0	0	0	0	0	1	17
235.419921875	0.0999622592485139	482140	88	9	stim09_sf2_pattern1_cont1_shape2.png	0	88	0	332.711480900746	332.811443159994	0.0999622592485139	stim09_sf2_pattern1_cont1_shape2.png	2	1	1	2	1	4	0	0	0	0	0	0	0	0	0	0	0	0	1	17
235.919921875	0.0999948095468426	483164	89	12	stim12_sf2_pattern2_cont1_shape1.png	0	89	0	333.21149893537	333.311493744917	0.0999948095468426	stim12_sf2_pattern2_cont1_shape1.png	2	2	1	1	1	1	0	0	0	0	0	0	0	0	0	0	0	0	1	17
236.419921875	0.100026480107317	484188	90	14	stim14_sf2_pattern2_cont2_shape1.png	0	90	0	333.711459200547	333.811485680654	0.100026480107317	stim14_sf2_pattern2_cont2_shape1.png	2	2	2	1	1	1	0	0	0	0	0	0	0	0	0	0	0	0	1	17
236.919921875	0.099997155514302	485212	91	6	stim06_sf1_pattern2_cont2_shape1.png	0	91	0	334.211482220353	334.311479375867	0.099997155514302	stim06_sf1_pattern2_cont2_shape1.png	1	2	2	1	1	1	0	0	0	0	0	0	0	0	0	0	0	0	1	17
237.41943359375	0.0999769215450215	486235	92	5	stim05_sf1_pattern2_cont1_shape2.png	0	92	0	334.711485592681	334.811462514226	0.0999769215450215	stim05_sf1_pattern2_cont1_shape2.png	1	2	1	2	1	3	0	0	0	0	0	0	0	0	0	0	0	0	1	17
237.91943359375	0.0999953960385938	487259	93	4	stim04_sf1_pattern2_cont1_shape1.png	0	93	0	335.211466678318	335.311462074357	0.0999953960385938	stim04_sf1_pattern2_cont1_shape1.png	1	2	1	1	1	1	0	0	0	0	0	0	0	0	0	0	0	0	1	17
238.41943359375	0.0999992082361132	488283	94	7	stim07_sf1_pattern2_cont2_shape2.png	0	94	0	335.71144453825	335.811443746486	0.0999992082361132	stim07_sf1_pattern2_cont2_shape2.png	1	2	2	2	1	3	0	0	0	0	0	0	0	0	0	0	0	0	1	17
238.91943359375	0.0999933433172373	489307	95	11	stim11_sf2_pattern1_cont2_shape2.png	0	95	1	336.211444098381	336.311437441699	0.0999933433172373	stim11_sf2_pattern1_cont2_shape2.png	2	1	2	2	1	4	0	0	0	0	0	0	0	0	0	0	0	0	1	17
239.41943359375	0.100046714077052	490331	96	11	stim11_sf2_pattern1_cont2_shape2.png	0	96	1	336.711380024145	336.811426738223	0.100046714077052	stim11_sf2_pattern1_cont2_shape2.png	2	1	2	2	1	4	0	0	0	0	0	0	0	0	0	0	0	0	1	17
239.91943359375	0.0999948095468426	491355	97	10	stim10_sf2_pattern1_cont2_shape1.png	0	97	2	337.211421811691	337.311416621238	0.0999948095468426	stim10_sf2_pattern1_cont2_shape1.png	2	1	2	1	1	2	0	0	0	0	0	0	0	0	0	0	0	0	1	17
240.41943359375	0.100022081418501	492379	98	15	stim15_sf2_pattern2_cont2_shape2.png	0	98	2	337.711385889064	337.811407970483	0.100022081418501	stim15_sf2_pattern2_cont2_shape2.png	2	2	2	2	1	3	0	0	0	0	0	0	0	0	0	0	0	0	1	17
240.91943359375	0.099997448760405	493403	99	10	stim10_sf2_pattern1_cont2_shape1.png	0	99	0	338.211404216935	338.311401665695	0.099997448760405	stim10_sf2_pattern1_cont2_shape1.png	2	1	2	1	1	2	0	0	0	0	0	0	0	0	0	0	0	0	1	17
241.41943359375	0.0999833729556485	494427	100	0	stim00_sf1_pattern1_cont1_shape1.png	0	100	0	338.711393513458	338.811376886414	0.0999833729556485	stim00_sf1_pattern1_cont1_shape1.png	1	1	1	1	1	2	0	0	0	0	0	0	0	0	0	0	0	0	1	17
241.91943359375	0.100002727187075	495451	101	8	stim08_sf2_pattern1_cont1_shape1.png	0	101	0	339.211383982966	339.311386710153	0.100002727187075	stim08_sf2_pattern1_cont1_shape1.png	2	1	1	1	1	2	0	0	0	0	0	0	0	0	0	0	0	0	1	17
242.41943359375	0.0999971555147567	496475	102	1	stim01_sf1_pattern1_cont1_shape2.png	0	102	0	339.711373865981	339.811371021496	0.0999971555147567	stim01_sf1_pattern1_cont1_shape2.png	1	1	1	2	1	4	0	0	0	0	0	0	0	0	0	0	0	0	1	17
242.91943359375	0.0999959825303449	497499	103	15	stim15_sf2_pattern2_cont2_shape2.png	0	103	0	340.21136638821	340.31136237074	0.0999959825303449	stim15_sf2_pattern2_cont2_shape2.png	2	2	2	2	1	3	0	0	0	0	0	0	0	0	0	0	0	0	1	17
243.41943359375	0.100027066599068	498523	104	7	stim07_sf1_pattern2_cont2_shape2.png	0	104	0	340.711325773649	340.811352840248	0.100027066599068	stim07_sf1_pattern2_cont2_shape2.png	1	2	2	2	1	3	0	0	0	0	0	0	0	0	0	0	0	0	1	17
243.91943359375	0.0999983284982591	499547	105	3	stim03_sf1_pattern1_cont2_shape2.png	0	105	0	341.211346447486	341.311344775985	0.0999983284982591	stim03_sf1_pattern1_cont2_shape2.png	1	1	2	2	1	4	0	0	0	0	0	0	0	0	0	0	0	0	1	17
244.41943359375	0.0999681241673898	500571	106	10	stim10_sf2_pattern1_cont2_shape1.png	0	106	0	341.711340435945	341.811308560113	0.0999681241673898	stim10_sf2_pattern1_cont2_shape1.png	2	1	2	1	1	2	0	0	0	0	0	0	0	0	0	0	0	0	1	17
244.91943359375	0.0999959825307997	501595	107	4	stim04_sf1_pattern2_cont1_shape1.png	0	107	0	342.211329145977	342.311325128508	0.0999959825307997	stim04_sf1_pattern2_cont1_shape1.png	1	2	1	1	1	1	0	0	0	0	0	0	0	0	0	0	0	0	1	17
245.41943359375	0.0999962757769026	502619	108	6	stim06_sf1_pattern2_cont2_shape1.png	0	108	0	342.7113184425	342.811314718277	0.0999962757769026	stim06_sf1_pattern2_cont2_shape1.png	1	2	2	1	1	1	0	0	0	0	0	0	0	0	0	0	0	0	1	17
245.91943359375	0.099996862268199	503643	109	15	stim15_sf2_pattern2_cont2_shape2.png	0	109	0	343.211311551221	343.311308413489	0.099996862268199	stim15_sf2_pattern2_cont2_shape2.png	2	2	2	2	1	3	0	0	0	0	0	0	0	0	0	0	0	0	1	17
246.41943359375	0.0999848391857086	504667	110	8	stim08_sf2_pattern1_cont1_shape1.png	0	110	0	343.711302020728	343.811286859914	0.0999848391857086	stim08_sf2_pattern1_cont1_shape1.png	2	1	1	1	1	2	0	0	0	0	0	0	0	0	0	0	0	0	1	17
246.91943359375	0.10000126095747	505691	111	14	stim14_sf2_pattern2_cont2_shape1.png	0	111	0	344.211292783481	344.311294044439	0.10000126095747	stim14_sf2_pattern2_cont2_shape1.png	2	2	2	1	1	1	0	0	0	0	0	0	0	0	0	0	0	0	1	17
247.41943359375	0.100024134140313	506715	112	1	stim01_sf1_pattern1_cont1_shape2.png	0	112	0	344.711250409444	344.811274543585	0.100024134140313	stim01_sf1_pattern1_cont1_shape2.png	1	1	1	2	1	4	0	0	0	0	0	0	0	0	0	0	0	0	1	17
247.91943359375	0.0999904108580267	507739	113	9	stim09_sf2_pattern1_cont1_shape2.png	0	113	0	345.211255541248	345.311245952106	0.0999904108580267	stim09_sf2_pattern1_cont1_shape2.png	2	1	1	2	1	4	0	0	0	0	0	0	0	0	0	0	0	0	1	17
248.41943359375	0.0999830797100003	508763	114	5	stim05_sf1_pattern2_cont1_shape2.png	0	114	0	345.711247183739	345.811230263449	0.0999830797100003	stim05_sf1_pattern2_cont1_shape2.png	1	2	1	2	1	3	0	0	0	0	0	0	0	0	0	0	0	0	1	17
248.91943359375	0.0999959825307997	509787	115	0	stim00_sf1_pattern1_cont1_shape1.png	0	115	0	346.211231201836	346.311227184367	0.0999959825307997	stim00_sf1_pattern1_cont1_shape1.png	1	1	1	1	1	2	0	0	0	0	0	0	0	0	0	0	0	0	1	17
249.41943359375	0.100032345026193	510811	116	11	stim11_sf2_pattern1_cont2_shape2.png	0	116	0	346.711205836063	346.811238181089	0.100032345026193	stim11_sf2_pattern1_cont2_shape2.png	2	1	2	2	1	4	0	0	0	0	0	0	0	0	0	0	0	0	1	17
249.91943359375	0.0999651917077244	511835	117	2	stim02_sf1_pattern1_cont2_shape1.png	0	117	0	347.211244984395	347.311210176103	0.0999651917077244	stim02_sf1_pattern1_cont2_shape1.png	1	1	2	1	1	2	0	0	0	0	0	0	0	0	0	0	0	0	1	17
250.41943359375	0.0999959825303449	512859	118	12	stim12_sf2_pattern2_cont1_shape1.png	0	118	0	347.711224603803	347.811220586333	0.0999959825303449	stim12_sf2_pattern2_cont1_shape1.png	2	2	1	1	1	1	0	0	0	0	0	0	0	0	0	0	0	0	1	17
250.91943359375	0.0999989149900102	513883	119	13	stim13_sf2_pattern2_cont1_shape2.png	0	119	0	348.211215659802	348.311214574792	0.0999989149900102	stim13_sf2_pattern2_cont1_shape2.png	2	2	1	2	1	3	0	0	0	0	0	0	0	0	0	0	0	0	1	17
251.41943359375	0.0999798540046868	514907	120	5	stim05_sf1_pattern2_cont1_shape2.png	0	120	0	348.711214046949	348.811193900954	0.0999798540046868	stim05_sf1_pattern2_cont1_shape2.png	1	2	1	2	1	3	0	0	0	0	0	0	0	0	0	0	0	0	1	17
251.91943359375	0.0999898243662756	515931	121	6	stim06_sf1_pattern2_cont2_shape1.png	0	121	0	349.211209794883	349.311199619249	0.0999898243662756	stim06_sf1_pattern2_cont2_shape1.png	1	2	2	1	1	1	0	0	0	0	0	0	0	0	0	0	0	0	1	17
252.41943359375	0.100000087973513	516955	122	14	stim14_sf2_pattern2_cont2_shape1.png	0	122	0	349.711181203405	349.811181291378	0.100000087973513	stim14_sf2_pattern2_cont2_shape1.png	2	2	2	1	1	1	0	0	0	0	0	0	0	0	0	0	0	0	1	17
252.91943359375	0.10000419341668	517979	123	15	stim15_sf2_pattern2_cont2_shape2.png	0	123	0	350.211183109504	350.31118730292	0.10000419341668	stim15_sf2_pattern2_cont2_shape2.png	2	2	2	2	1	3	0	0	0	0	0	0	0	0	0	0	0	0	1	17
253.41943359375	0.0999857189235627	519003	124	13	stim13_sf2_pattern2_cont1_shape2.png	0	124	0	350.711202317112	350.811188036035	0.0999857189235627	stim13_sf2_pattern2_cont1_shape2.png	2	2	1	2	1	3	0	0	0	0	0	0	0	0	0	0	0	0	1	17
253.91943359375	0.0999962757769026	520027	125	10	stim10_sf2_pattern1_cont2_shape1.png	0	125	0	351.211164048518	351.311160324295	0.0999962757769026	stim10_sf2_pattern1_cont2_shape1.png	2	1	2	1	1	2	0	0	0	0	0	0	0	0	0	0	0	0	1	17
254.41943359375	0.100027653091274	521051	126	4	stim04_sf1_pattern2_cont1_shape1.png	0	126	0	351.711136923269	351.811164576361	0.100027653091274	stim04_sf1_pattern2_cont1_shape1.png	1	2	1	1	1	1	0	0	0	0	0	0	0	0	0	0	0	0	1	17
254.9189453125	0.0999951027929455	522074	127	0	stim00_sf1_pattern1_cont1_shape1.png	0	127	0	352.211149092976	352.311144195769	0.0999951027929455	stim00_sf1_pattern1_cont1_shape1.png	1	1	1	1	1	2	0	0	0	0	0	0	0	0	0	0	0	0	1	17
255.4189453125	0.0999760418071673	523098	128	2	stim02_sf1_pattern1_cont2_shape1.png	0	128	0	352.711155691009	352.811131732816	0.0999760418071673	stim02_sf1_pattern1_cont2_shape1.png	1	1	2	1	1	2	0	0	0	0	0	0	0	0	0	0	0	0	1	17
255.9189453125	0.0999739890862656	524122	129	3	stim03_sf1_pattern1_cont2_shape2.png	0	129	0	353.21112856576	353.311102554846	0.0999739890862656	stim03_sf1_pattern1_cont2_shape2.png	1	1	2	2	1	4	0	0	0	0	0	0	0	0	0	0	0	0	1	17
256.4189453125	0.0999942230555462	525146	130	1	stim01_sf1_pattern1_cont1_shape2.png	0	130	0	353.711119621759	353.811113844815	0.0999942230555462	stim01_sf1_pattern1_cont1_shape2.png	1	1	1	2	1	4	0	0	0	0	0	0	0	0	0	0	0	0	1	17
256.9189453125	0.0999945163011944	526170	131	12	stim12_sf2_pattern2_cont1_shape1.png	0	131	0	354.211110384513	354.311104900814	0.0999945163011944	stim12_sf2_pattern2_cont1_shape1.png	2	2	1	1	1	1	0	0	0	0	0	0	0	0	0	0	0	0	1	17
257.4189453125	0.0999871851527132	527194	132	11	stim11_sf2_pattern1_cont2_shape2.png	0	132	0	354.711107598676	354.811094783829	0.0999871851527132	stim11_sf2_pattern1_cont2_shape2.png	2	1	2	2	1	4	0	0	0	0	0	0	0	0	0	0	0	0	1	17
257.9189453125	0.0991769466468213	528218	133	9	stim09_sf2_pattern1_cont1_shape2.png	0	133	0	355.211910359411	355.311087306058	0.0991769466468213	stim09_sf2_pattern1_cont1_shape2.png	2	1	1	2	1	4	0	0	0	0	0	0	0	0	0	0	0	0	1	17
258.4189453125	0.099974868823665	529242	134	8	stim08_sf2_pattern1_cont1_shape1.png	0	134	0	355.711080620051	355.811055488874	0.099974868823665	stim08_sf2_pattern1_cont1_shape1.png	2	1	1	1	1	2	0	0	0	0	0	0	0	0	0	0	0	0	1	17
258.9189453125	0.0999977420060532	530266	135	7	stim07_sf1_pattern2_cont2_shape2.png	0	135	0	356.211069623329	356.311067365335	0.0999977420060532	stim07_sf1_pattern2_cont2_shape2.png	1	2	2	2	1	3	0	0	0	0	0	0	0	0	0	0	0	0	1	17
259.4189453125	0.100024720631609	531290	136	8	stim08_sf2_pattern1_cont1_shape1.png	0	136	0	356.711033700702	356.811058421334	0.100024720631609	stim08_sf2_pattern1_cont1_shape1.png	2	1	1	1	1	2	0	0	0	0	0	0	0	0	0	0	0	0	1	17
259.9189453125	0.0999927568254861	532314	137	13	stim13_sf2_pattern2_cont1_shape2.png	0	137	0	357.211055840769	357.311048597595	0.0999927568254861	stim13_sf2_pattern2_cont1_shape2.png	2	2	1	2	1	3	0	0	0	0	0	0	0	0	0	0	0	0	1	17
260.4189453125	0.099969590396995	533338	138	5	stim05_sf1_pattern2_cont1_shape2.png	0	138	0	357.711043377818	357.811012968215	0.099969590396995	stim05_sf1_pattern2_cont1_shape2.png	1	2	1	2	1	3	0	0	0	0	0	0	0	0	0	0	0	0	1	17
260.9189453125	0.0999956892846967	534362	139	9	stim09_sf2_pattern1_cont1_shape2.png	0	139	0	358.21103707303	358.311032762315	0.0999956892846967	stim09_sf2_pattern1_cont1_shape2.png	2	1	1	2	1	4	0	0	0	0	0	0	0	0	0	0	0	0	1	17
261.4189453125	0.0999971555147567	535386	140	1	stim01_sf1_pattern1_cont1_shape2.png	0	140	0	358.711025489816	358.81102264533	0.0999971555147567	stim01_sf1_pattern1_cont1_shape2.png	1	1	1	2	1	4	0	0	0	0	0	0	0	0	0	0	0	0	1	17
261.9189453125	0.0999942230550914	536410	141	0	stim00_sf1_pattern1_cont1_shape1.png	0	141	0	359.211016252569	359.311010475624	0.0999942230550914	stim00_sf1_pattern1_cont1_shape1.png	1	1	1	1	1	2	0	0	0	0	0	0	0	0	0	0	0	0	1	17
262.4189453125	0.0999845459391508	537434	142	3	stim03_sf1_pattern1_cont2_shape2.png	0	142	0	359.711011120765	359.810995666704	0.0999845459391508	stim03_sf1_pattern1_cont2_shape2.png	1	1	2	2	1	4	0	0	0	0	0	0	0	0	0	0	0	0	1	17
262.9189453125	0.100002140694869	538458	143	6	stim06_sf1_pattern2_cont2_shape1.png	0	143	0	360.210997778076	360.31099991877	0.100002140694869	stim06_sf1_pattern2_cont2_shape1.png	1	2	2	1	1	1	0	0	0	0	0	0	0	0	0	0	0	0	1	17
263.4189453125	0.100002433940972	539482	144	14	stim14_sf2_pattern2_cont2_shape1.png	0	144	0	360.710988834075	360.810991268016	0.100002433940972	stim14_sf2_pattern2_cont2_shape1.png	2	2	2	1	1	1	0	0	0	0	0	0	0	0	0	0	0	0	1	17
263.9189453125	0.10002677335342	540506	145	10	stim10_sf2_pattern1_cont2_shape1.png	0	145	0	361.210954377678	361.310981151031	0.10002677335342	stim10_sf2_pattern1_cont2_shape1.png	2	1	2	1	1	2	0	0	0	0	0	0	0	0	0	0	0	0	1	17
264.4189453125	0.100002433941427	541530	146	11	stim11_sf2_pattern1_cont2_shape2.png	0	146	0	361.710961855449	361.81096428939	0.100002433941427	stim11_sf2_pattern1_cont2_shape2.png	2	1	2	2	1	4	0	0	0	0	0	0	0	0	0	0	0	0	1	17
264.9189453125	0.0999766282989185	542554	147	12	stim12_sf2_pattern2_cont1_shape1.png	0	147	0	362.210957603383	362.310934231682	0.0999766282989185	stim12_sf2_pattern2_cont1_shape1.png	2	2	1	1	1	1	0	0	0	0	0	0	0	0	0	0	0	0	1	17
265.4189453125	0.099997448760405	543578	148	2	stim02_sf1_pattern1_cont2_shape1.png	0	148	0	362.710951298595	362.810948747356	0.099997448760405	stim02_sf1_pattern1_cont2_shape1.png	1	1	2	1	1	2	0	0	0	0	0	0	0	0	0	0	0	0	1	17
265.9189453125	0.0999980352521561	544602	149	4	stim04_sf1_pattern2_cont1_shape1.png	0	149	0	363.210937955906	363.310935991158	0.0999980352521561	stim04_sf1_pattern2_cont1_shape1.png	1	2	1	1	1	1	0	0	0	0	0	0	0	0	0	0	0	0	1	17
266.4189453125	0.0999933433176921	545626	150	7	stim07_sf1_pattern2_cont2_shape2.png	0	150	0	363.710941034988	363.810934378305	0.0999933433176921	stim07_sf1_pattern2_cont2_shape2.png	1	2	2	2	1	3	0	0	0	0	0	0	0	0	0	0	0	0	1	17
266.9189453125	0.100030292304837	546650	151	15	stim15_sf2_pattern2_cont2_shape2.png	0	151	0	364.210901300164	364.310931592469	0.100030292304837	stim15_sf2_pattern2_cont2_shape2.png	2	2	2	2	1	3	0	0	0	0	0	0	0	0	0	0	0	0	1	17
267.4189453125	0.0999769215454762	547674	152	8	stim08_sf2_pattern1_cont1_shape1.png	0	152	0	364.710925786199	364.810902707745	0.0999769215454762	stim08_sf2_pattern1_cont1_shape1.png	2	1	1	1	1	2	0	0	0	0	0	0	0	0	0	0	0	0	1	17
267.9189453125	0.0999992082361132	548698	153	14	stim14_sf2_pattern2_cont2_shape1.png	0	153	0	365.210908924558	365.310908132794	0.0999992082361132	stim14_sf2_pattern2_cont2_shape1.png	2	2	2	1	1	1	0	0	0	0	0	0	0	0	0	0	0	0	1	17
268.4189453125	0.0999716431183515	549722	154	9	stim09_sf2_pattern1_cont1_shape2.png	0	154	0	365.710903792755	365.810875435873	0.0999716431183515	stim09_sf2_pattern1_cont1_shape2.png	2	1	1	2	1	4	0	0	0	0	0	0	0	0	0	0	0	0	1	17
268.9189453125	0.0999977420060532	550746	155	6	stim06_sf1_pattern2_cont2_shape1.png	0	155	0	366.210888690589	366.310886432595	0.0999977420060532	stim06_sf1_pattern2_cont2_shape1.png	1	2	2	1	1	1	0	0	0	0	0	0	0	0	0	0	0	0	1	17
269.4189453125	0.0999951027929455	551770	156	7	stim07_sf1_pattern2_cont2_shape2.png	0	156	0	366.710881212818	366.810876315611	0.0999951027929455	stim07_sf1_pattern2_cont2_shape2.png	1	2	2	2	1	3	0	0	0	0	0	0	0	0	0	0	0	0	1	17
269.9189453125	0.099986598660962	552794	157	1	stim01_sf1_pattern1_cont1_shape2.png	0	157	0	367.210883118917	367.310869717578	0.099986598660962	stim01_sf1_pattern1_cont1_shape2.png	1	1	1	2	1	4	0	0	0	0	0	0	0	0	0	0	0	0	1	17
270.4189453125	0.0999959825307997	553818	158	11	stim11_sf2_pattern1_cont2_shape2.png	0	158	0	367.710860978849	367.81085696138	0.0999959825307997	stim11_sf2_pattern1_cont2_shape2.png	2	1	2	2	1	4	0	0	0	0	0	0	0	0	0	0	0	0	1	17
270.9189453125	0.100001554203573	554842	159	3	stim03_sf1_pattern1_cont2_shape2.png	0	159	0	368.21084968888	368.310851243084	0.100001554203573	stim03_sf1_pattern1_cont2_shape2.png	1	1	2	2	1	4	0	0	0	0	0	0	0	0	0	0	0	0	1	17
271.4189453125	0.100020908434544	555866	160	4	stim04_sf1_pattern2_cont1_shape1.png	0	160	0	368.710817285205	368.81083819364	0.100020908434544	stim04_sf1_pattern2_cont1_shape1.png	1	2	1	1	1	1	0	0	0	0	0	0	0	0	0	0	0	0	1	17
271.9189453125	0.099968417413038	556890	161	2	stim02_sf1_pattern1_cont2_shape1.png	0	161	0	369.210834440092	369.310802857505	0.099968417413038	stim02_sf1_pattern1_cont2_shape1.png	1	1	2	1	1	2	0	0	0	0	0	0	0	0	0	0	0	0	1	17
272.41845703125	0.0999965690225508	557913	162	12	stim12_sf2_pattern2_cont1_shape1.png	0	162	0	369.7108249096	369.810821478622	0.0999965690225508	stim12_sf2_pattern2_cont1_shape1.png	2	2	1	1	1	1	0	0	0	0	0	0	0	0	0	0	0	0	1	17
272.91845703125	0.0999971555147567	558937	163	15	stim15_sf2_pattern2_cont2_shape2.png	0	163	0	370.210813912877	370.310811068392	0.0999971555147567	stim15_sf2_pattern2_cont2_shape2.png	2	2	2	2	1	3	0	0	0	0	0	0	0	0	0	0	0	0	1	17
273.41845703125	0.0999992082356584	559961	164	13	stim13_sf2_pattern2_cont1_shape2.png	0	164	0	370.710804968876	370.810804177112	0.0999992082356584	stim13_sf2_pattern2_cont1_shape2.png	2	2	1	2	1	3	0	0	0	0	0	0	0	0	0	0	0	0	1	17
273.91845703125	0.099997155514302	560985	165	0	stim00_sf1_pattern1_cont1_shape1.png	0	165	0	371.210796611367	371.310793766881	0.099997155514302	stim00_sf1_pattern1_cont1_shape1.png	1	1	1	1	1	2	0	0	0	0	0	0	0	0	0	0	0	0	1	17
274.41845703125	0.0999951027934003	562009	166	10	stim10_sf2_pattern1_cont2_shape1.png	0	166	0	371.710790306579	371.810785409373	0.0999951027934003	stim10_sf2_pattern1_cont2_shape1.png	2	1	2	1	1	2	0	0	0	0	0	0	0	0	0	0	0	0	1	17
274.91845703125	0.0999939298089885	563033	167	5	stim05_sf1_pattern2_cont1_shape2.png	0	167	0	372.210779603103	372.310773532912	0.0999939298089885	stim05_sf1_pattern2_cont1_shape2.png	1	2	1	2	1	3	0	0	0	0	0	0	0	0	0	0	0	0	1	17
303.91796875	0.0999625524946168	622424	168	5	stim05_sf1_pattern2_cont1_shape2.png	1	0	0	401.210253226658	401.310215779153	0.0999625524946168	stim05_sf1_pattern2_cont1_shape2.png	1	2	1	2	1	3	0	0	0	0	0	0	0	0	0	0	0	0	1	17
304.41796875	0.100047007322701	623448	169	1	stim01_sf1_pattern1_cont1_shape2.png	1	1	0	401.71018856593	401.810235573253	0.100047007322701	stim01_sf1_pattern1_cont1_shape2.png	1	1	1	2	1	4	0	0	0	0	0	0	0	0	0	0	0	0	1	17
304.91796875	0.100000967711367	624472	170	7	stim07_sf1_pattern2_cont2_shape2.png	1	2	0	402.210229180492	402.310230148203	0.100000967711367	stim07_sf1_pattern2_cont2_shape2.png	1	2	2	2	1	3	0	0	0	0	0	0	0	0	0	0	0	0	1	17
305.41796875	0.0999956892846967	625496	171	15	stim15_sf2_pattern2_cont2_shape2.png	1	3	0	402.710221409475	402.810217098759	0.0999956892846967	stim15_sf2_pattern2_cont2_shape2.png	2	2	2	2	1	3	0	0	0	0	0	0	0	0	0	0	0	0	1	17
305.91796875	0.100024134140313	626520	172	3	stim03_sf1_pattern1_cont2_shape2.png	1	4	0	403.210183434127	403.310207568267	0.100024134140313	stim03_sf1_pattern1_cont2_shape2.png	1	1	2	2	1	4	0	0	0	0	0	0	0	0	0	0	0	0	1	17
306.41796875	0.100001847449676	627544	173	11	stim11_sf2_pattern1_cont2_shape2.png	1	5	0	403.710203814719	403.810205662168	0.100001847449676	stim11_sf2_pattern1_cont2_shape2.png	2	1	2	2	1	4	0	0	0	0	0	0	0	0	0	0	0	0	1	17
306.91796875	0.099997155514302	628568	174	9	stim09_sf2_pattern1_cont1_shape2.png	1	6	0	404.210192231505	404.310189387019	0.099997155514302	stim09_sf2_pattern1_cont1_shape2.png	2	1	1	2	1	4	0	0	0	0	0	0	0	0	0	0	0	0	1	17
307.41748046875	0.100000087973513	629591	175	8	stim08_sf2_pattern1_cont1_shape1.png	1	7	0	404.710181234782	404.810181322756	0.100000087973513	stim08_sf2_pattern1_cont1_shape1.png	2	1	1	1	1	2	0	0	0	0	0	0	0	0	0	0	0	0	1	17
307.91748046875	0.100000967711367	630615	176	2	stim02_sf1_pattern1_cont2_shape1.png	1	8	0	405.210170824552	405.310171792263	0.100000967711367	stim02_sf1_pattern1_cont2_shape1.png	1	1	2	1	1	2	0	0	0	0	0	0	0	0	0	0	0	0	1	17
308.41748046875	0.0999830797095456	631639	177	4	stim04_sf1_pattern2_cont1_shape1.png	1	9	0	405.710151910189	405.810134989899	0.0999830797095456	stim04_sf1_pattern2_cont1_shape1.png	1	2	1	1	1	1	0	0	0	0	0	0	0	0	0	0	0	0	1	17
308.91748046875	0.0999995014817614	632663	178	0	stim00_sf1_pattern1_cont1_shape1.png	1	10	0	406.210141206713	406.310140708194	0.0999995014817614	stim00_sf1_pattern1_cont1_shape1.png	1	1	1	1	1	2	0	0	0	0	0	0	0	0	0	0	0	0	1	17
309.41748046875	0.0999933433172373	633687	179	6	stim06_sf1_pattern2_cont2_shape1.png	1	11	0	406.710122878842	406.810116222159	0.0999933433172373	stim06_sf1_pattern2_cont2_shape1.png	1	2	2	1	1	1	0	0	0	0	0	0	0	0	0	0	0	0	1	17
309.91748046875	0.0999965690230056	634711	180	12	stim12_sf2_pattern2_cont1_shape1.png	1	12	0	407.210115987562	407.310112556585	0.0999965690230056	stim12_sf2_pattern2_cont1_shape1.png	2	2	1	1	1	1	0	0	0	0	0	0	0	0	0	0	0	0	1	17
310.41748046875	0.100004486662783	635735	181	10	stim10_sf2_pattern1_cont2_shape1.png	1	13	0	407.710075959493	407.810080446156	0.100004486662783	stim10_sf2_pattern1_cont2_shape1.png	2	1	2	1	1	2	0	0	0	0	0	0	0	0	0	0	0	0	1	17
310.91748046875	0.0999930500715891	636759	182	14	stim14_sf2_pattern2_cont2_shape1.png	1	14	0	408.210095460347	408.310088510419	0.0999930500715891	stim14_sf2_pattern2_cont2_shape1.png	2	2	2	1	1	1	0	0	0	0	0	0	0	0	0	0	0	0	1	17
311.41748046875	0.0999561010839898	637783	183	13	stim13_sf2_pattern2_cont1_shape2.png	1	15	0	408.710089742052	408.810045843136	0.0999561010839898	stim13_sf2_pattern2_cont1_shape2.png	2	2	1	2	1	3	0	0	0	0	0	0	0	0	0	0	0	0	1	17
311.91748046875	0.100025307123815	638807	184	6	stim06_sf1_pattern2_cont2_shape1.png	1	16	0	409.210082850772	409.310108157896	0.100025307123815	stim06_sf1_pattern2_cont2_shape1.png	1	2	2	1	1	1	0	0	0	0	0	0	0	0	0	0	0	0	1	17
312.41748046875	0.100002140695324	639831	185	5	stim05_sf1_pattern2_cont1_shape2.png	1	17	0	409.710094433987	409.810096574682	0.100002140695324	stim05_sf1_pattern2_cont1_shape2.png	1	2	1	2	1	3	0	0	0	0	0	0	0	0	0	0	0	0	1	17
312.91748046875	0.100000381219616	640855	186	9	stim09_sf2_pattern1_cont1_shape2.png	1	18	0	410.210088715691	410.310089096911	0.100000381219616	stim09_sf2_pattern1_cont1_shape2.png	2	1	1	2	1	4	0	0	0	0	0	0	0	0	0	0	0	0	1	17
313.41748046875	0.100012990794312	641879	187	1	stim01_sf1_pattern1_cont1_shape2.png	1	19	0	410.710066868869	410.810079859664	0.100012990794312	stim01_sf1_pattern1_cont1_shape2.png	1	1	1	2	1	4	0	0	0	0	0	0	0	0	0	0	0	0	1	17
313.91748046875	0.100002433940972	642903	188	7	stim07_sf1_pattern2_cont2_shape2.png	1	20	0	411.210072587165	411.310075021106	0.100002433940972	stim07_sf1_pattern2_cont2_shape2.png	1	2	2	2	1	3	0	0	0	0	0	0	0	0	0	0	0	0	1	17
314.41748046875	0.100058737159998	643927	189	12	stim12_sf2_pattern2_cont1_shape1.png	1	21	0	411.710004407486	411.810063144646	0.100058737159998	stim12_sf2_pattern2_cont1_shape1.png	2	2	1	1	1	1	0	0	0	0	0	0	0	0	0	0	0	0	1	17
314.91748046875	0.0999983284978043	644951	190	11	stim11_sf2_pattern1_cont2_shape2.png	1	22	0	412.21004560854	412.310043937037	0.0999983284978043	stim11_sf2_pattern1_cont2_shape2.png	2	1	2	2	1	4	0	0	0	0	0	0	0	0	0	0	0	0	1	17
315.41748046875	0.100028826075231	645975	191	13	stim13_sf2_pattern2_cont1_shape2.png	1	23	0	412.709970390958	412.809999217033	0.100028826075231	stim13_sf2_pattern2_cont1_shape2.png	2	2	1	2	1	3	0	0	0	0	0	0	0	0	0	0	0	0	1	17
315.91748046875	0.0999965690225508	646999	192	0	stim00_sf1_pattern1_cont1_shape1.png	1	24	0	413.210028013783	413.310024582806	0.0999965690225508	stim00_sf1_pattern1_cont1_shape1.png	1	1	1	1	1	2	0	0	0	0	0	0	0	0	0	0	0	0	1	17
316.41748046875	0.0999912905958809	648023	193	4	stim04_sf1_pattern2_cont1_shape1.png	1	25	0	413.710023761717	413.810015052313	0.0999912905958809	stim04_sf1_pattern2_cont1_shape1.png	1	2	1	1	1	1	0	0	0	0	0	0	0	0	0	0	0	0	1	17
316.91748046875	0.099997448760405	649047	194	14	stim14_sf2_pattern2_cont2_shape1.png	1	26	0	414.21000807306	414.310005521821	0.099997448760405	stim14_sf2_pattern2_cont2_shape1.png	2	2	2	1	1	1	0	0	0	0	0	0	0	0	0	0	0	0	1	17
317.41748046875	0.0999868919066103	650071	195	8	stim08_sf2_pattern1_cont1_shape1.png	1	27	0	414.710009685913	414.80999657782	0.0999868919066103	stim08_sf2_pattern1_cont1_shape1.png	2	1	1	1	1	2	0	0	0	0	0	0	0	0	0	0	0	0	1	17
317.91748046875	0.0999977420065079	651095	196	3	stim03_sf1_pattern1_cont2_shape2.png	1	28	0	415.209990185058	415.309987927065	0.0999977420065079	stim03_sf1_pattern1_cont2_shape2.png	1	1	2	2	1	4	0	0	0	0	0	0	0	0	0	0	0	0	1	17
318.41748046875	0.0999965690225508	652119	197	15	stim15_sf2_pattern2_cont2_shape2.png	1	29	0	415.709982414041	415.809978983064	0.0999965690225508	stim15_sf2_pattern2_cont2_shape2.png	2	2	2	2	1	3	0	0	0	0	0	0	0	0	0	0	0	0	1	17
318.91748046875	0.099996862268199	653143	198	10	stim10_sf2_pattern1_cont2_shape1.png	1	30	0	416.209973763287	416.309970625555	0.099996862268199	stim10_sf2_pattern1_cont2_shape1.png	2	1	2	1	1	2	0	0	0	0	0	0	0	0	0	0	0	0	1	17
319.41748046875	0.0999959825307997	654167	199	4	stim04_sf1_pattern2_cont1_shape1.png	1	31	1	416.709963646302	416.809959628833	0.0999959825307997	stim04_sf1_pattern2_cont1_shape1.png	1	2	1	1	1	1	0	0	0	0	0	0	0	0	0	0	0	0	1	17
319.91748046875	0.0999842526935026	655191	200	4	stim04_sf1_pattern2_cont1_shape1.png	1	32	1	417.209954702301	417.309938954994	0.0999842526935026	stim04_sf1_pattern2_cont1_shape1.png	1	2	1	1	1	1	0	0	0	0	0	0	0	0	0	0	0	0	1	17
320.41748046875	0.0999810269881891	656215	201	7	stim07_sf1_pattern2_cont2_shape2.png	1	33	2	417.709947517776	417.809928544764	0.0999810269881891	stim07_sf1_pattern2_cont2_shape2.png	1	2	2	2	1	3	0	0	0	0	0	0	0	0	0	0	0	0	1	17
320.91748046875	0.0999915838419838	657239	202	10	stim10_sf2_pattern1_cont2_shape1.png	1	34	2	418.209938573775	418.309930157617	0.0999915838419838	stim10_sf2_pattern1_cont2_shape1.png	2	1	2	1	1	2	0	0	0	0	0	0	0	0	0	0	0	0	1	17
321.41748046875	0.099991877087632	658263	203	2	stim02_sf1_pattern1_cont2_shape1.png	1	35	0	418.709929336528	418.809921213616	0.099991877087632	stim02_sf1_pattern1_cont2_shape1.png	1	1	2	1	1	2	0	0	0	0	0	0	0	0	0	0	0	0	1	17
321.91748046875	0.0999962757769026	659287	204	13	stim13_sf2_pattern2_cont1_shape2.png	1	36	0	419.209919219543	419.30991549532	0.0999962757769026	stim13_sf2_pattern2_cont1_shape2.png	2	2	1	2	1	3	0	0	0	0	0	0	0	0	0	0	0	0	1	17
322.41748046875	0.0999948095468426	660311	205	15	stim15_sf2_pattern2_cont2_shape2.png	1	37	0	419.709909102559	419.809903912106	0.0999948095468426	stim15_sf2_pattern2_cont2_shape2.png	2	2	2	2	1	3	0	0	0	0	0	0	0	0	0	0	0	0	1	17
322.91748046875	0.099992170333735	661335	206	1	stim01_sf1_pattern1_cont1_shape2.png	1	38	0	420.209900451804	420.309892622137	0.099992170333735	stim01_sf1_pattern1_cont1_shape2.png	1	1	1	2	1	4	0	0	0	0	0	0	0	0	0	0	0	0	1	17
323.41748046875	0.100053751978976	662359	207	10	stim10_sf2_pattern1_cont2_shape1.png	1	39	0	420.709837550552	420.809891302531	0.100053751978976	stim10_sf2_pattern1_cont2_shape1.png	2	1	2	1	1	2	0	0	0	0	0	0	0	0	0	0	0	0	1	17
323.91748046875	0.100011524565161	663383	208	6	stim06_sf1_pattern2_cont2_shape1.png	1	40	0	421.209882270556	421.309893795121	0.100011524565161	stim06_sf1_pattern2_cont2_shape1.png	1	2	2	1	1	1	0	0	0	0	0	0	0	0	0	0	0	0	1	17
324.41748046875	0.099957860559698	664407	209	8	stim08_sf2_pattern1_cont1_shape1.png	1	41	0	421.709880071212	421.809837931771	0.099957860559698	stim08_sf2_pattern1_cont1_shape1.png	2	1	1	1	1	2	0	0	0	0	0	0	0	0	0	0	0	0	1	17
324.9169921875	0.0999663646916815	665430	210	11	stim11_sf2_pattern1_cont2_shape2.png	1	42	0	422.209869367735	422.309835732427	0.0999663646916815	stim11_sf2_pattern1_cont2_shape2.png	2	1	2	2	1	4	0	0	0	0	0	0	0	0	0	0	0	0	1	17
325.4169921875	0.0999980352521561	666454	211	14	stim14_sf2_pattern2_cont2_shape1.png	1	43	0	422.709847814159	422.809845849411	0.0999980352521561	stim14_sf2_pattern2_cont2_shape1.png	2	2	2	1	1	1	0	0	0	0	0	0	0	0	0	0	0	0	1	17
325.9169921875	0.100077504899218	667478	212	9	stim09_sf2_pattern1_cont1_shape2.png	1	44	0	423.209839749896	423.309917254795	0.100077504899218	stim09_sf2_pattern1_cont1_shape2.png	2	1	1	2	1	4	0	0	0	0	0	0	0	0	0	0	0	0	1	17
326.4169921875	0.100010644827307	668502	213	7	stim07_sf1_pattern2_cont2_shape2.png	1	45	0	423.70979590963	423.809806554457	0.100010644827307	stim07_sf1_pattern2_cont2_shape2.png	1	2	2	2	1	3	0	0	0	0	0	0	0	0	0	0	0	0	1	17
326.9169921875	0.100000381219616	669526	214	0	stim00_sf1_pattern1_cont1_shape1.png	1	46	0	424.209820982157	424.309821363376	0.100000381219616	stim00_sf1_pattern1_cont1_shape1.png	1	1	1	1	1	2	0	0	0	0	0	0	0	0	0	0	0	0	1	17
327.4169921875	0.0999965690225508	670550	215	2	stim02_sf1_pattern1_cont2_shape1.png	1	47	0	424.709814384123	424.809810953146	0.0999965690225508	stim02_sf1_pattern1_cont2_shape1.png	1	1	2	1	1	2	0	0	0	0	0	0	0	0	0	0	0	0	1	17
327.9169921875	0.100002433941427	671574	216	5	stim05_sf1_pattern2_cont1_shape2.png	1	48	0	425.209807199598	425.309809633539	0.100002433941427	stim05_sf1_pattern2_cont1_shape2.png	1	2	1	2	1	3	0	0	0	0	0	0	0	0	0	0	0	0	1	17
328.4169921875	0.0999983284982591	672598	217	12	stim12_sf2_pattern2_cont1_shape1.png	1	49	0	425.70980236104	425.809800689538	0.0999983284982591	stim12_sf2_pattern2_cont1_shape1.png	2	2	1	1	1	1	0	0	0	0	0	0	0	0	0	0	0	0	1	17
328.9169921875	0.0999959825307997	673622	218	3	stim03_sf1_pattern1_cont2_shape2.png	1	50	0	426.209794003531	426.309789986062	0.0999959825307997	stim03_sf1_pattern1_cont2_shape2.png	1	1	2	2	1	4	0	0	0	0	0	0	0	0	0	0	0	0	1	17
329.4169921875	0.0999701768887462	674646	219	4	stim04_sf1_pattern2_cont1_shape1.png	1	51	0	426.709789458219	426.809759635108	0.0999701768887462	stim04_sf1_pattern2_cont1_shape1.png	1	2	1	1	1	1	0	0	0	0	0	0	0	0	0	0	0	0	1	17
329.9169921875	0.0999672444295356	675670	220	9	stim09_sf2_pattern1_cont1_shape2.png	1	52	0	427.209801627925	427.309768872355	0.0999672444295356	stim09_sf2_pattern1_cont1_shape2.png	2	1	1	2	1	4	0	0	0	0	0	0	0	0	0	0	0	0	1	17
330.4169921875	0.0999924635793832	676694	221	3	stim03_sf1_pattern1_cont2_shape2.png	1	53	0	427.70976775802	427.8097602216	0.0999924635793832	stim03_sf1_pattern1_cont2_shape2.png	1	1	2	2	1	4	0	0	0	0	0	0	0	0	0	0	0	0	1	17
330.9169921875	0.100005952892388	677718	222	8	stim08_sf2_pattern1_cont1_shape1.png	1	54	0	428.209757054544	428.309763007436	0.100005952892388	stim08_sf2_pattern1_cont1_shape1.png	2	1	1	1	1	2	0	0	0	0	0	0	0	0	0	0	0	0	1	17
331.4169921875	0.10001621650008	678742	223	12	stim12_sf2_pattern2_cont1_shape1.png	1	55	0	428.709744298346	428.809760514846	0.10001621650008	stim12_sf2_pattern2_cont1_shape1.png	2	2	1	1	1	1	0	0	0	0	0	0	0	0	0	0	0	0	1	17
331.9169921875	0.0999956892846967	679766	224	4	stim04_sf1_pattern2_cont1_shape1.png	1	56	0	429.209735647591	429.309731336876	0.0999956892846967	stim04_sf1_pattern2_cont1_shape1.png	1	2	1	1	1	1	0	0	0	0	0	0	0	0	0	0	0	0	1	17
332.4169921875	0.099997155514302	680790	225	6	stim06_sf1_pattern2_cont2_shape1.png	1	57	0	429.70972670359	429.809723859104	0.099997155514302	stim06_sf1_pattern2_cont2_shape1.png	1	2	2	1	1	1	0	0	0	0	0	0	0	0	0	0	0	0	1	17
332.9169921875	0.0999948095472973	681814	226	2	stim02_sf1_pattern1_cont2_shape1.png	1	58	0	430.209716586605	430.309711396153	0.0999948095472973	stim02_sf1_pattern1_cont2_shape1.png	1	1	2	1	1	2	0	0	0	0	0	0	0	0	0	0	0	0	1	17
333.4169921875	0.100005659646285	682838	227	1	stim01_sf1_pattern1_cont1_shape2.png	1	59	0	430.709652219124	430.80965787877	0.100005659646285	stim01_sf1_pattern1_cont1_shape2.png	1	1	1	2	1	4	0	0	0	0	0	0	0	0	0	0	0	0	1	17
333.9169921875	0.099998621744362	683862	228	13	stim13_sf2_pattern2_cont1_shape2.png	1	60	0	431.209697232374	431.309695854118	0.099998621744362	stim13_sf2_pattern2_cont1_shape2.png	2	2	1	2	1	3	0	0	0	0	0	0	0	0	0	0	0	0	1	17
334.4169921875	0.0999725228566604	684886	229	7	stim07_sf1_pattern2_cont2_shape2.png	1	61	0	431.709689168111	431.809661690967	0.0999725228566604	stim07_sf1_pattern2_cont2_shape2.png	1	2	2	2	1	3	0	0	0	0	0	0	0	0	0	0	0	0	1	17
334.9169921875	0.0999989149900102	685910	230	5	stim05_sf1_pattern2_cont1_shape2.png	1	62	0	432.209677584897	432.309676499887	0.0999989149900102	stim05_sf1_pattern2_cont1_shape2.png	1	2	1	2	1	3	0	0	0	0	0	0	0	0	0	0	0	0	1	17
335.4169921875	0.0999769215450215	686934	231	10	stim10_sf2_pattern1_cont2_shape1.png	1	63	0	432.709670986863	432.809647908408	0.0999769215450215	stim10_sf2_pattern1_cont2_shape1.png	2	1	2	1	1	2	0	0	0	0	0	0	0	0	0	0	0	0	1	17
335.9169921875	0.100001554203118	687958	232	14	stim14_sf2_pattern2_cont2_shape1.png	1	64	0	433.209663802338	433.309665356541	0.100001554203118	stim14_sf2_pattern2_cont2_shape1.png	2	2	2	1	1	1	0	0	0	0	0	0	0	0	0	0	0	0	1	17
336.4169921875	0.0999965690225508	688982	233	0	stim00_sf1_pattern1_cont1_shape1.png	1	65	0	433.709653392108	433.80964996113	0.0999965690225508	stim00_sf1_pattern1_cont1_shape1.png	1	1	1	1	1	2	0	0	0	0	0	0	0	0	0	0	0	0	1	17
336.9169921875	0.0999959825307997	690006	234	15	stim15_sf2_pattern2_cont2_shape2.png	1	66	0	434.209643861614	434.309639844145	0.0999959825307997	stim15_sf2_pattern2_cont2_shape2.png	2	2	2	2	1	3	0	0	0	0	0	0	0	0	0	0	0	0	1	17
337.4169921875	0.100044954600889	691030	235	11	stim11_sf2_pattern1_cont2_shape2.png	1	67	0	434.709587411773	434.809632366374	0.100044954600889	stim11_sf2_pattern1_cont2_shape2.png	2	1	2	2	1	4	0	0	0	0	0	0	0	0	0	0	0	0	1	17
337.9169921875	0.0999992082361132	692054	236	0	stim00_sf1_pattern1_cont1_shape1.png	1	68	0	435.209626266859	435.309625475095	0.0999992082361132	stim00_sf1_pattern1_cont1_shape1.png	1	1	1	1	1	2	0	0	0	0	0	0	0	0	0	0	0	0	1	17
338.4169921875	0.0999968622686538	693078	237	14	stim14_sf2_pattern2_cont2_shape1.png	1	69	0	435.70961790935	435.809614771618	0.0999968622686538	stim14_sf2_pattern2_cont2_shape1.png	2	2	2	1	1	1	0	0	0	0	0	0	0	0	0	0	0	0	1	17
338.9169921875	0.100003900171032	694102	238	15	stim15_sf2_pattern2_cont2_shape2.png	1	70	0	436.209603686922	436.309607587093	0.100003900171032	stim15_sf2_pattern2_cont2_shape2.png	2	2	2	2	1	3	0	0	0	0	0	0	0	0	0	0	0	0	1	17
339.4169921875	0.0999945163011944	695126	239	5	stim05_sf1_pattern2_cont1_shape2.png	1	71	0	436.709577148165	436.809571664467	0.0999945163011944	stim05_sf1_pattern2_cont1_shape2.png	1	2	1	2	1	3	0	0	0	0	0	0	0	0	0	0	0	0	1	17
339.9169921875	0.100025600369918	696150	240	11	stim11_sf2_pattern1_cont2_shape2.png	1	72	0	437.209567617673	437.309593218043	0.100025600369918	stim11_sf2_pattern1_cont2_shape2.png	2	1	2	2	1	4	0	0	0	0	0	0	0	0	0	0	0	0	1	17
340.4169921875	0.100011231319058	697174	241	8	stim08_sf2_pattern1_cont1_shape1.png	1	73	0	437.709564245345	437.809575476664	0.100011231319058	stim08_sf2_pattern1_cont1_shape1.png	2	1	1	1	1	2	0	0	0	0	0	0	0	0	0	0	0	0	1	17
340.9169921875	0.099980440496438	698198	242	1	stim01_sf1_pattern1_cont1_shape2.png	1	74	0	438.209567324427	438.309547764923	0.099980440496438	stim01_sf1_pattern1_cont1_shape2.png	1	1	1	2	1	4	0	0	0	0	0	0	0	0	0	0	0	0	1	17
341.4169921875	0.100006246138037	699222	243	9	stim09_sf2_pattern1_cont1_shape2.png	1	75	0	438.709558380426	438.809564626564	0.100006246138037	stim09_sf2_pattern1_cont1_shape2.png	2	1	1	2	1	4	0	0	0	0	0	0	0	0	0	0	0	0	1	17
341.9169921875	0.099975162069768	700246	244	10	stim10_sf2_pattern1_cont2_shape1.png	1	76	0	439.209548849933	439.309524012003	0.099975162069768	stim10_sf2_pattern1_cont2_shape1.png	2	1	2	1	1	2	0	0	0	0	0	0	0	0	0	0	0	0	1	17
342.41650390625	0.0999563943300927	701269	245	3	stim03_sf1_pattern1_cont2_shape2.png	1	77	0	439.709543131637	439.809499525968	0.0999563943300927	stim03_sf1_pattern1_cont2_shape2.png	1	1	2	2	1	4	0	0	0	0	0	0	0	0	0	0	0	0	1	17
342.91650390625	0.100000674465718	702293	246	4	stim04_sf1_pattern2_cont1_shape1.png	1	78	0	440.209537999834	440.309538674299	0.100000674465718	stim04_sf1_pattern2_cont1_shape1.png	1	2	1	1	1	1	0	0	0	0	0	0	0	0	0	0	0	0	1	17
343.41650390625	0.100040555912074	703317	247	6	stim06_sf1_pattern2_cont2_shape1.png	1	79	0	440.709479790517	440.809520346429	0.100040555912074	stim06_sf1_pattern2_cont2_shape1.png	1	2	2	1	1	1	0	0	0	0	0	0	0	0	0	0	0	0	1	17
343.91650390625	0.0999907041036749	704341	248	7	stim07_sf1_pattern2_cont2_shape2.png	1	80	0	441.209523924029	441.309514628133	0.0999907041036749	stim07_sf1_pattern2_cont2_shape2.png	1	2	2	2	1	3	0	0	0	0	0	0	0	0	0	0	0	0	1	17
344.41650390625	0.0999734025945145	705365	249	13	stim13_sf2_pattern2_cont1_shape2.png	1	81	0	441.709522897668	441.809496300263	0.0999734025945145	stim13_sf2_pattern2_cont1_shape2.png	2	2	1	2	1	3	0	0	0	0	0	0	0	0	0	0	0	0	1	17
344.91650390625	0.100004779908886	706389	250	12	stim12_sf2_pattern2_cont1_shape1.png	1	82	0	442.209499584617	442.309504364526	0.100004779908886	stim12_sf2_pattern2_cont1_shape1.png	2	2	1	1	1	1	0	0	0	0	0	0	0	0	0	0	0	0	1	17
345.41650390625	0.0999722296105574	707413	251	2	stim02_sf1_pattern1_cont2_shape1.png	1	83	0	442.709489174386	442.809461403997	0.0999722296105574	stim02_sf1_pattern1_cont2_shape1.png	1	1	2	1	1	2	0	0	0	0	0	0	0	0	0	0	0	0	1	17
345.91650390625	0.0999983284982591	708437	252	15	stim15_sf2_pattern2_cont2_shape2.png	1	84	0	443.209479350648	443.309477679146	0.0999983284982591	stim15_sf2_pattern2_cont2_shape2.png	2	2	2	2	1	3	0	0	0	0	0	0	0	0	0	0	0	0	1	17
346.41650390625	0.0999857189231079	709461	253	14	stim14_sf2_pattern2_cont2_shape1.png	1	85	0	443.709481549992	443.809467268915	0.0999857189231079	stim14_sf2_pattern2_cont2_shape1.png	2	2	2	1	1	1	0	0	0	0	0	0	0	0	0	0	0	0	1	17
346.91650390625	0.0999945163011944	710485	254	11	stim11_sf2_pattern1_cont2_shape2.png	1	86	0	444.2094611694	444.309455685701	0.0999945163011944	stim11_sf2_pattern1_cont2_shape2.png	2	1	2	2	1	4	0	0	0	0	0	0	0	0	0	0	0	0	1	17
347.41650390625	0.10002149492675	711509	255	6	stim06_sf1_pattern2_cont2_shape1.png	1	87	0	444.70938155313	444.809403048057	0.10002149492675	stim06_sf1_pattern2_cont2_shape1.png	1	2	2	1	1	1	0	0	0	0	0	0	0	0	0	0	0	0	1	17
347.91650390625	0.0999959825307997	712533	256	7	stim07_sf1_pattern2_cont2_shape2.png	1	88	0	445.209442988152	445.309438970683	0.0999959825307997	stim07_sf1_pattern2_cont2_shape2.png	1	2	2	2	1	3	0	0	0	0	0	0	0	0	0	0	0	0	1	17
348.41650390625	0.100015923253977	713557	257	3	stim03_sf1_pattern1_cont2_shape2.png	1	89	0	445.709419968347	445.809435891601	0.100015923253977	stim03_sf1_pattern1_cont2_shape2.png	1	1	2	2	1	4	0	0	0	0	0	0	0	0	0	0	0	0	1	17
348.91650390625	0.0999936365633403	714581	258	4	stim04_sf1_pattern2_cont1_shape1.png	1	90	0	446.209427152872	446.309420789436	0.0999936365633403	stim04_sf1_pattern2_cont1_shape1.png	1	2	1	1	1	1	0	0	0	0	0	0	0	0	0	0	0	0	1	17
349.41650390625	0.0999889446284215	715605	259	10	stim10_sf2_pattern1_cont2_shape1.png	1	91	0	446.709424660282	446.80941360491	0.0999889446284215	stim10_sf2_pattern1_cont2_shape1.png	2	1	2	1	1	2	0	0	0	0	0	0	0	0	0	0	0	0	1	17
349.91650390625	0.0999959825307997	716629	260	0	stim00_sf1_pattern1_cont1_shape1.png	1	92	0	447.209406918903	447.309402901434	0.0999959825307997	stim00_sf1_pattern1_cont1_shape1.png	1	1	1	1	1	2	0	0	0	0	0	0	0	0	0	0	0	0	1	17
350.41650390625	0.0999992082361132	717653	261	5	stim05_sf1_pattern2_cont1_shape2.png	1	93	0	447.709396215426	447.809395423662	0.0999992082361132	stim05_sf1_pattern2_cont1_shape2.png	1	2	1	2	1	3	0	0	0	0	0	0	0	0	0	0	0	0	1	17
350.91650390625	0.0999945163007396	718677	262	2	stim02_sf1_pattern1_cont2_shape1.png	1	94	0	448.209388737655	448.309383253956	0.0999945163007396	stim02_sf1_pattern1_cont2_shape1.png	1	1	2	1	1	2	0	0	0	0	0	0	0	0	0	0	0	0	1	17
351.41650390625	0.0999968622686538	719701	263	1	stim01_sf1_pattern1_cont1_shape2.png	1	95	0	448.709378620671	448.809375482939	0.0999968622686538	stim01_sf1_pattern1_cont1_shape2.png	1	1	1	2	1	4	0	0	0	0	0	0	0	0	0	0	0	0	1	17
351.91650390625	0.100004193417135	720725	264	9	stim09_sf2_pattern1_cont1_shape2.png	1	96	0	449.209367917194	449.309372110611	0.100004193417135	stim09_sf2_pattern1_cont1_shape2.png	2	1	1	2	1	4	0	0	0	0	0	0	0	0	0	0	0	0	1	17
352.41650390625	0.100050819519765	721749	265	13	stim13_sf2_pattern2_cont1_shape2.png	1	97	0	449.709306188926	449.809357008446	0.100050819519765	stim13_sf2_pattern2_cont1_shape2.png	2	2	1	2	1	3	0	0	0	0	0	0	0	0	0	0	0	0	1	17
352.91650390625	0.0999953960390485	722773	266	12	stim12_sf2_pattern2_cont1_shape1.png	1	98	0	450.209352668406	450.309348064445	0.0999953960390485	stim12_sf2_pattern2_cont1_shape1.png	2	2	1	1	1	1	0	0	0	0	0	0	0	0	0	0	0	0	1	17
353.41650390625	0.0999997947274096	723797	267	8	stim08_sf2_pattern1_cont1_shape1.png	1	99	0	450.70934196493	450.809341759657	0.0999997947274096	stim08_sf2_pattern1_cont1_shape1.png	2	1	1	1	1	2	0	0	0	0	0	0	0	0	0	0	0	0	1	17
353.91650390625	0.100003313679281	724821	268	5	stim05_sf1_pattern2_cont1_shape2.png	1	100	0	451.209333314174	451.309336627854	0.100003313679281	stim05_sf1_pattern2_cont1_shape2.png	1	2	1	2	1	3	0	0	0	0	0	0	0	0	0	0	0	0	1	17
354.41650390625	0.0999939298094432	725845	269	7	stim07_sf1_pattern2_cont2_shape2.png	1	101	0	451.709323783682	451.809317713491	0.0999939298094432	stim07_sf1_pattern2_cont2_shape2.png	1	2	2	2	1	3	0	0	0	0	0	0	0	0	0	0	0	0	1	17
354.91650390625	0.0999898243658208	726869	270	13	stim13_sf2_pattern2_cont1_shape2.png	1	102	0	452.209318358632	452.309308182998	0.0999898243658208	stim13_sf2_pattern2_cont1_shape2.png	2	2	1	2	1	3	0	0	0	0	0	0	0	0	0	0	0	0	1	17
355.41650390625	0.0999769215450215	727893	271	15	stim15_sf2_pattern2_cont2_shape2.png	1	103	0	452.709307655155	452.809284576701	0.0999769215450215	stim15_sf2_pattern2_cont2_shape2.png	2	2	2	2	1	3	0	0	0	0	0	0	0	0	0	0	0	0	1	17
355.91650390625	0.0999546348548392	728917	272	1	stim01_sf1_pattern1_cont1_shape2.png	1	104	0	453.209296071941	453.309250706796	0.0999546348548392	stim01_sf1_pattern1_cont1_shape2.png	1	1	1	2	1	4	0	0	0	0	0	0	0	0	0	0	0	0	1	17
356.41650390625	0.100063135848814	729941	273	9	stim09_sf2_pattern1_cont1_shape2.png	1	105	0	453.709206192063	453.809269327912	0.100063135848814	stim09_sf2_pattern1_cont1_shape2.png	2	1	1	2	1	4	0	0	0	0	0	0	0	0	0	0	0	0	1	17
356.91650390625	0.100011524564707	730965	274	2	stim02_sf1_pattern1_cont2_shape1.png	1	106	0	454.209279650169	454.309291174734	0.100011524564707	stim02_sf1_pattern1_cont2_shape1.png	1	1	2	1	1	2	0	0	0	0	0	0	0	0	0	0	0	0	1	17
357.41650390625	0.100047300568349	731989	275	11	stim11_sf2_pattern1_cont2_shape2.png	1	107	0	454.709220561114	454.809267861683	0.100047300568349	stim11_sf2_pattern1_cont2_shape2.png	2	1	2	2	1	4	0	0	0	0	0	0	0	0	0	0	0	0	1	17
357.91650390625	0.100018855713188	733013	276	0	stim00_sf1_pattern1_cont1_shape1.png	1	108	0	455.209235370034	455.309254225747	0.100018855713188	stim00_sf1_pattern1_cont1_shape1.png	1	1	1	1	1	2	0	0	0	0	0	0	0	0	0	0	0	0	1	17
358.41650390625	0.0999795607590386	734037	277	14	stim14_sf2_pattern2_cont2_shape1.png	1	109	0	455.709253111412	455.809232672171	0.0999795607590386	stim14_sf2_pattern2_cont2_shape1.png	2	2	2	1	1	1	0	0	0	0	0	0	0	0	0	0	0	0	1	17
358.91650390625	0.0999786810211845	735061	278	3	stim03_sf1_pattern1_cont2_shape2.png	1	110	0	456.209242701182	456.309221382203	0.0999786810211845	stim03_sf1_pattern1_cont2_shape2.png	1	1	2	2	1	4	0	0	0	0	0	0	0	0	0	0	0	0	1	17
359.41650390625	0.100000967711367	736085	279	12	stim12_sf2_pattern2_cont1_shape1.png	1	111	0	456.709237569378	456.80923853709	0.100000967711367	stim12_sf2_pattern2_cont1_shape1.png	2	2	1	1	1	1	0	0	0	0	0	0	0	0	0	0	0	0	1	17
359.916015625	0.0999892378745244	737108	280	8	stim08_sf2_pattern1_cont1_shape1.png	1	112	0	457.209241528198	457.309230766073	0.0999892378745244	stim08_sf2_pattern1_cont1_shape1.png	2	1	1	1	1	2	0	0	0	0	0	0	0	0	0	0	0	0	1	17
360.416015625	0.099998914990465	738132	281	10	stim10_sf2_pattern1_cont2_shape1.png	1	113	0	457.709223786819	457.80922270181	0.099998914990465	stim10_sf2_pattern1_cont2_shape1.png	2	1	2	1	1	2	0	0	0	0	0	0	0	0	0	0	0	0	1	17
360.916015625	0.099997155514302	739156	282	6	stim06_sf1_pattern2_cont2_shape1.png	1	114	0	458.209205458949	458.309202614463	0.099997155514302	stim06_sf1_pattern2_cont2_shape1.png	1	2	2	1	1	1	0	0	0	0	0	0	0	0	0	0	0	0	1	17
361.416015625	0.0999728161023086	740180	283	4	stim04_sf1_pattern2_cont1_shape1.png	1	115	0	458.709196221702	458.809169037804	0.0999728161023086	stim04_sf1_pattern2_cont1_shape1.png	1	2	1	1	1	1	0	0	0	0	0	0	0	0	0	0	0	0	1	17
361.916015625	0.100001554203118	741204	284	3	stim03_sf1_pattern1_cont2_shape2.png	1	116	0	459.209184638488	459.309186192691	0.100001554203118	stim03_sf1_pattern1_cont2_shape2.png	1	1	2	2	1	4	0	0	0	0	0	0	0	0	0	0	0	0	1	17
362.416015625	0.0999956892846967	742228	285	6	stim06_sf1_pattern2_cont2_shape1.png	1	117	0	459.709180093176	459.80917578246	0.0999956892846967	stim06_sf1_pattern2_cont2_shape1.png	1	2	2	1	1	1	0	0	0	0	0	0	0	0	0	0	0	0	1	17
362.916015625	0.0999965690225508	743252	286	14	stim14_sf2_pattern2_cont2_shape1.png	1	118	0	460.20916792347	460.309164492492	0.0999965690225508	stim14_sf2_pattern2_cont2_shape1.png	2	2	2	1	1	1	0	0	0	0	0	0	0	0	0	0	0	0	1	17
363.416015625	0.0999722296101027	744276	287	9	stim09_sf2_pattern1_cont1_shape2.png	1	119	0	460.709158686223	460.809130915833	0.0999722296101027	stim09_sf2_pattern1_cont1_shape2.png	2	1	1	2	1	4	0	0	0	0	0	0	0	0	0	0	0	0	1	17
363.916015625	0.100000381219616	745300	288	12	stim12_sf2_pattern2_cont1_shape1.png	1	120	0	461.209147982746	461.309148363966	0.100000381219616	stim12_sf2_pattern2_cont1_shape1.png	2	2	1	1	1	1	0	0	0	0	0	0	0	0	0	0	0	0	1	17
364.42431640625	0.0999909973497779	746341	289	7	stim07_sf1_pattern2_cont2_shape2.png	1	121	0	461.717484524679	461.817475522029	0.0999909973497779	stim07_sf1_pattern2_cont2_shape2.png	1	2	2	2	1	3	0	0	0	0	0	0	0	0	0	0	0	0	1	17
364.92431640625	0.100001847449221	747365	290	0	stim00_sf1_pattern1_cont1_shape1.png	1	122	0	462.217467076546	462.317468923995	0.100001847449221	stim00_sf1_pattern1_cont1_shape1.png	1	1	1	1	1	2	0	0	0	0	0	0	0	0	0	0	0	0	1	17
365.42431640625	0.0999892378745244	748389	291	5	stim05_sf1_pattern2_cont1_shape2.png	1	123	0	462.717472501596	462.81746173947	0.0999892378745244	stim05_sf1_pattern2_cont1_shape2.png	1	2	1	2	1	3	0	0	0	0	0	0	0	0	0	0	0	0	1	17
365.92431640625	0.0999895311201726	749413	292	15	stim15_sf2_pattern2_cont2_shape2.png	1	124	0	463.217453880479	463.317443411599	0.0999895311201726	stim15_sf2_pattern2_cont2_shape2.png	2	2	2	2	1	3	0	0	0	0	0	0	0	0	0	0	0	0	1	17
366.42431640625	0.0999540483626333	750437	293	11	stim11_sf2_pattern1_cont2_shape2.png	1	125	0	463.71743760533	463.817391653693	0.0999540483626333	stim11_sf2_pattern1_cont2_shape2.png	2	1	2	2	1	4	0	0	0	0	0	0	0	0	0	0	0	0	1	17
366.92431640625	0.0992531905890246	751461	294	8	stim08_sf2_pattern1_cont1_shape1.png	1	126	0	464.218170866779	464.317424057368	0.0992531905890246	stim08_sf2_pattern1_cont1_shape1.png	2	1	1	1	1	2	0	0	0	0	0	0	0	0	0	0	0	0	1	17
367.42431640625	0.0999968622686538	752485	295	13	stim13_sf2_pattern2_cont1_shape2.png	1	127	0	464.717419717328	464.817416579597	0.0999968622686538	stim13_sf2_pattern2_cont1_shape2.png	2	2	1	2	1	3	0	0	0	0	0	0	0	0	0	0	0	0	1	17
367.92431640625	0.0999962757764479	753509	296	1	stim01_sf1_pattern1_cont1_shape2.png	1	128	0	465.217410773328	465.317407049104	0.0999962757764479	stim01_sf1_pattern1_cont1_shape2.png	1	1	1	2	1	4	0	0	0	0	0	0	0	0	0	0	0	0	1	17
368.42431640625	0.0999951027929455	754533	297	4	stim04_sf1_pattern2_cont1_shape1.png	1	129	0	465.717406814507	465.8174019173	0.0999951027929455	stim04_sf1_pattern2_cont1_shape1.png	1	2	1	1	1	1	0	0	0	0	0	0	0	0	0	0	0	0	1	17
368.92431640625	0.0999927568254861	755557	298	10	stim10_sf2_pattern1_cont2_shape1.png	1	130	0	466.217395817785	466.317388574611	0.0999927568254861	stim10_sf2_pattern1_cont2_shape1.png	2	1	2	1	1	2	0	0	0	0	0	0	0	0	0	0	0	0	1	17
369.42431640625	0.100043488371739	756581	299	2	stim02_sf1_pattern1_cont2_shape1.png	1	131	0	466.717335555746	466.817379044118	0.100043488371739	stim02_sf1_pattern1_cont2_shape1.png	1	1	2	1	1	2	0	0	0	0	0	0	0	0	0	0	0	0	1	17
369.92431640625	0.0999995014817614	757605	300	15	stim15_sf2_pattern2_cont2_shape2.png	1	132	0	467.217374117586	467.317373619068	0.0999995014817614	stim15_sf2_pattern2_cont2_shape2.png	2	2	2	2	1	3	0	0	0	0	0	0	0	0	0	0	0	0	1	17
370.42431640625	0.0999936365633403	758629	301	12	stim12_sf2_pattern2_cont1_shape1.png	1	133	0	467.717365466831	467.817359103395	0.0999936365633403	stim12_sf2_pattern2_cont1_shape1.png	2	2	1	1	1	1	0	0	0	0	0	0	0	0	0	0	0	0	1	17
370.92431640625	0.0999977420065079	759653	302	14	stim14_sf2_pattern2_cont2_shape1.png	1	134	0	468.217354470109	468.317352212115	0.0999977420065079	stim14_sf2_pattern2_cont2_shape1.png	2	2	2	1	1	1	0	0	0	0	0	0	0	0	0	0	0	0	1	17
371.42431640625	0.0999792675129356	760677	303	2	stim02_sf1_pattern1_cont2_shape1.png	1	135	0	468.717346405846	468.817325673358	0.0999792675129356	stim02_sf1_pattern1_cont2_shape1.png	1	1	2	1	1	2	0	0	0	0	0	0	0	0	0	0	0	0	1	17
371.92431640625	0.0999942230555462	761701	304	8	stim08_sf2_pattern1_cont1_shape1.png	1	136	0	469.217337461845	469.3173316849	0.0999942230555462	stim08_sf2_pattern1_cont1_shape1.png	2	1	1	1	1	2	0	0	0	0	0	0	0	0	0	0	0	0	1	17
372.42431640625	0.0999968622686538	762725	305	11	stim11_sf2_pattern1_cont2_shape2.png	1	137	0	469.71732734486	469.817324207129	0.0999968622686538	stim11_sf2_pattern1_cont2_shape2.png	2	1	2	2	1	4	0	0	0	0	0	0	0	0	0	0	0	0	1	17
372.92431640625	0.099991877087632	763749	306	3	stim03_sf1_pattern1_cont2_shape2.png	1	138	0	470.217323679286	470.317315556374	0.099991877087632	stim03_sf1_pattern1_cont2_shape2.png	1	1	2	2	1	4	0	0	0	0	0	0	0	0	0	0	0	0	1	17
373.42431640625	0.0999962757769026	764773	307	13	stim13_sf2_pattern2_cont1_shape2.png	1	139	0	470.717308577121	470.817304852897	0.0999962757769026	stim13_sf2_pattern2_cont1_shape2.png	2	2	1	2	1	3	0	0	0	0	0	0	0	0	0	0	0	0	1	17
373.92431640625	0.0999986217439073	765797	308	5	stim05_sf1_pattern2_cont1_shape2.png	1	140	0	471.217299926366	471.31729854811	0.0999986217439073	stim05_sf1_pattern2_cont1_shape2.png	1	2	1	2	1	3	0	0	0	0	0	0	0	0	0	0	0	0	1	17
374.42431640625	0.100000087973967	766821	309	7	stim07_sf1_pattern2_cont2_shape2.png	1	141	0	471.717290102627	471.817290190601	0.100000087973967	stim07_sf1_pattern2_cont2_shape2.png	1	2	2	2	1	3	0	0	0	0	0	0	0	0	0	0	0	0	1	17
374.92431640625	0.100010351581659	767845	310	1	stim01_sf1_pattern1_cont1_shape2.png	1	142	0	472.21725564623	472.317265997812	0.100010351581659	stim01_sf1_pattern1_cont1_shape2.png	1	1	1	2	1	4	0	0	0	0	0	0	0	0	0	0	0	0	1	17
375.42431640625	0.100041728895576	768869	311	6	stim06_sf1_pattern2_cont2_shape1.png	1	143	0	472.717198609897	472.817240338793	0.100041728895576	stim06_sf1_pattern2_cont2_shape1.png	1	2	2	1	1	1	0	0	0	0	0	0	0	0	0	0	0	0	1	17
375.92431640625	0.100002727187075	769893	312	9	stim09_sf2_pattern1_cont1_shape2.png	1	144	0	473.217260631411	473.317263358598	0.100002727187075	stim09_sf2_pattern1_cont1_shape2.png	2	1	1	2	1	4	0	0	0	0	0	0	0	0	0	0	0	0	1	17
376.42431640625	0.0999625524946168	770917	313	10	stim10_sf2_pattern1_cont2_shape1.png	1	145	0	473.717261657772	473.817224210266	0.0999625524946168	stim10_sf2_pattern1_cont2_shape1.png	2	1	2	1	1	2	0	0	0	0	0	0	0	0	0	0	0	0	1	17
376.92431640625	0.0999839594478544	771941	314	4	stim04_sf1_pattern2_cont1_shape1.png	1	146	0	474.217242450163	474.317226409611	0.0999839594478544	stim04_sf1_pattern2_cont1_shape1.png	1	2	1	1	1	1	0	0	0	0	0	0	0	0	0	0	0	0	1	17
377.42431640625	0.099998914990465	772965	315	0	stim00_sf1_pattern1_cont1_shape1.png	1	147	0	474.717231160195	474.817230075185	0.099998914990465	stim00_sf1_pattern1_cont1_shape1.png	1	1	1	1	1	2	0	0	0	0	0	0	0	0	0	0	0	0	1	17
377.92431640625	0.0999962757764479	773989	316	15	stim15_sf2_pattern2_cont2_shape2.png	1	148	0	475.217200515996	475.317196791772	0.0999962757764479	stim15_sf2_pattern2_cont2_shape2.png	2	2	2	2	1	3	0	0	0	0	0	0	0	0	0	0	0	0	1	17
378.423828125	0.100033811255798	775012	317	11	stim11_sf2_pattern1_cont2_shape2.png	1	149	0	475.717170458287	475.817204269543	0.100033811255798	stim11_sf2_pattern1_cont2_shape2.png	2	1	2	2	1	4	0	0	0	0	0	0	0	0	0	0	0	0	1	17
378.923828125	0.099997155514302	776036	318	3	stim03_sf1_pattern1_cont2_shape2.png	1	150	0	476.217218990489	476.317216146003	0.099997155514302	stim03_sf1_pattern1_cont2_shape2.png	1	1	2	2	1	4	0	0	0	0	0	0	0	0	0	0	0	0	1	17
379.423828125	0.0999886513827732	777060	319	5	stim05_sf1_pattern2_cont1_shape2.png	1	151	0	476.717208873504	476.817197524887	0.0999886513827732	stim05_sf1_pattern2_cont1_shape2.png	1	2	1	2	1	3	0	0	0	0	0	0	0	0	0	0	0	0	1	17
379.923828125	0.0999628457407198	778084	320	0	stim00_sf1_pattern1_cont1_shape1.png	1	152	0	477.217193771339	477.317156617079	0.0999628457407198	stim00_sf1_pattern1_cont1_shape1.png	1	1	1	1	1	2	0	0	0	0	0	0	0	0	0	0	0	0	1	17
380.423828125	0.100003900170577	779108	321	14	stim14_sf2_pattern2_cont2_shape1.png	1	153	0	477.717174563731	477.817178463901	0.100003900170577	stim14_sf2_pattern2_cont2_shape1.png	2	2	2	1	1	1	0	0	0	0	0	0	0	0	0	0	0	0	1	17
380.923828125	0.0999886513823185	780132	322	10	stim10_sf2_pattern1_cont2_shape1.png	1	154	0	478.217179402288	478.317168053671	0.0999886513823185	stim10_sf2_pattern1_cont2_shape1.png	2	1	2	1	1	2	0	0	0	0	0	0	0	0	0	0	0	0	1	17
381.423828125	0.100045834339198	781156	323	6	stim06_sf1_pattern2_cont2_shape1.png	1	155	0	478.717110049626	478.817155883965	0.100045834339198	stim06_sf1_pattern2_cont2_shape1.png	1	2	2	1	1	1	0	0	0	0	0	0	0	0	0	0	0	0	1	17
381.923828125	0.100009471843805	782180	324	13	stim13_sf2_pattern2_cont1_shape2.png	1	156	0	479.217153010155	479.317162481998	0.100009471843805	stim13_sf2_pattern2_cont1_shape2.png	2	2	1	2	1	3	0	0	0	0	0	0	0	0	0	0	0	0	1	17
382.423828125	0.099997448760405	783204	325	7	stim07_sf1_pattern2_cont2_shape2.png	1	157	0	479.717143186416	479.817140635176	0.099997448760405	stim07_sf1_pattern2_cont2_shape2.png	1	2	2	2	1	3	0	0	0	0	0	0	0	0	0	0	0	0	1	17
382.923828125	0.0999983284982591	784228	326	8	stim08_sf2_pattern1_cont1_shape1.png	1	158	0	480.217133949169	480.317132277667	0.0999983284982591	stim08_sf2_pattern1_cont1_shape1.png	2	1	1	1	1	2	0	0	0	0	0	0	0	0	0	0	0	0	1	17
383.423828125	0.099997448760405	785252	327	12	stim12_sf2_pattern2_cont1_shape1.png	1	159	0	480.717124418677	480.817121867437	0.099997448760405	stim12_sf2_pattern2_cont1_shape1.png	2	2	1	1	1	1	0	0	0	0	0	0	0	0	0	0	0	0	1	17
383.923828125	0.0999956892846967	786276	328	4	stim04_sf1_pattern2_cont1_shape1.png	1	160	0	481.21711518143	481.317110870714	0.0999956892846967	stim04_sf1_pattern2_cont1_shape1.png	1	2	1	1	1	1	0	0	0	0	0	0	0	0	0	0	0	0	1	17
384.423828125	0.100025307123815	787300	329	1	stim01_sf1_pattern1_cont1_shape2.png	1	161	0	481.717083364246	481.81710867137	0.100025307123815	stim01_sf1_pattern1_cont1_shape2.png	1	1	1	2	1	4	0	0	0	0	0	0	0	0	0	0	0	0	1	17
384.923828125	0.0999989149900102	788324	330	9	stim09_sf2_pattern1_cont1_shape2.png	1	162	0	482.217097879919	482.31709679491	0.0999989149900102	stim09_sf2_pattern1_cont1_shape2.png	2	1	1	2	1	4	0	0	0	0	0	0	0	0	0	0	0	0	1	17
385.423828125	0.0999953960390485	789348	331	2	stim02_sf1_pattern1_cont2_shape1.png	1	163	0	482.717088349427	482.817083745466	0.0999953960390485	stim02_sf1_pattern1_cont2_shape1.png	1	1	2	1	1	2	0	0	0	0	0	0	0	0	0	0	0	0	1	17
409.43994140625	0.0999912905958809	838533	332	7	stim07_sf1_pattern2_cont2_shape2.png	2	0	0	506.733318045445	506.833309336041	0.0999912905958809	stim07_sf1_pattern2_cont2_shape2.png	1	2	2	2	1	3	0	0	0	0	0	0	0	0	0	0	0	0	1	17
409.93994140625	0.0999930500711343	839557	333	12	stim12_sf2_pattern2_cont1_shape1.png	2	1	0	507.233305582493	507.333298632564	0.0999930500711343	stim12_sf2_pattern2_cont1_shape1.png	2	2	1	1	1	1	0	0	0	0	0	0	0	0	0	0	0	0	1	17
410.43994140625	0.100044368109138	840581	334	2	stim02_sf1_pattern1_cont2_shape1.png	2	2	0	507.733254117833	507.833298485942	0.100044368109138	stim02_sf1_pattern1_cont2_shape1.png	1	1	2	1	1	2	0	0	0	0	0	0	0	0	0	0	0	0	1	17
410.93994140625	0.0999948095468426	841605	335	15	stim15_sf2_pattern2_cont2_shape2.png	2	3	0	508.233288574229	508.333283383776	0.0999948095468426	stim15_sf2_pattern2_cont2_shape2.png	2	2	2	2	1	3	0	0	0	0	0	0	0	0	0	0	0	0	1	17
411.43994140625	0.099951409149071	842629	336	14	stim14_sf2_pattern2_cont2_shape1.png	2	4	0	508.733277284261	508.83322869341	0.099951409149071	stim14_sf2_pattern2_cont2_shape1.png	2	2	2	1	1	1	0	0	0	0	0	0	0	0	0	0	0	0	1	17
411.93994140625	0.099998914990465	843653	337	9	stim09_sf2_pattern1_cont1_shape2.png	2	5	0	509.233267167276	509.333266082267	0.099998914990465	stim09_sf2_pattern1_cont1_shape2.png	2	1	1	2	1	4	0	0	0	0	0	0	0	0	0	0	0	0	1	17
412.43994140625	0.0999901176123785	844677	338	10	stim10_sf2_pattern1_cont2_shape1.png	2	6	0	509.733265261178	509.83325537879	0.0999901176123785	stim10_sf2_pattern1_cont2_shape1.png	2	1	2	1	1	2	0	0	0	0	0	0	0	0	0	0	0	0	1	17
412.93994140625	0.100002433941427	845701	339	4	stim04_sf1_pattern2_cont1_shape1.png	2	7	0	510.233248692783	510.333251126724	0.100002433941427	stim04_sf1_pattern2_cont1_shape1.png	1	2	1	1	1	1	0	0	0	0	0	0	0	0	0	0	0	0	1	17
413.43994140625	0.0999640187242221	846725	340	1	stim01_sf1_pattern1_cont1_shape2.png	2	8	0	510.733228018945	510.833192037669	0.0999640187242221	stim01_sf1_pattern1_cont1_shape2.png	1	1	1	2	1	4	0	0	0	0	0	0	0	0	0	0	0	0	1	17
413.93994140625	0.0999933433172373	847749	341	8	stim08_sf2_pattern1_cont1_shape1.png	2	9	0	511.233232857503	511.33322620082	0.0999933433172373	stim08_sf2_pattern1_cont1_shape1.png	2	1	1	1	1	2	0	0	0	0	0	0	0	0	0	0	0	0	1	17
414.4482421875	0.100047007322701	848790	342	6	stim06_sf1_pattern2_cont2_shape1.png	2	10	0	511.74150488533	511.841551892653	0.100047007322701	stim06_sf1_pattern2_cont2_shape1.png	1	2	2	1	1	1	0	0	0	0	0	0	0	0	0	0	0	0	1	17
414.9482421875	0.0999945163011944	849814	343	3	stim03_sf1_pattern1_cont2_shape2.png	2	11	0	512.241546672875	512.341541189176	0.0999945163011944	stim03_sf1_pattern1_cont2_shape2.png	1	1	2	2	1	4	0	0	0	0	0	0	0	0	0	0	0	0	1	17
415.4482421875	0.0999860121692109	850838	344	5	stim05_sf1_pattern2_cont1_shape2.png	2	12	0	512.741533330186	512.841519342355	0.0999860121692109	stim05_sf1_pattern2_cont1_shape2.png	1	2	1	2	1	3	0	0	0	0	0	0	0	0	0	0	0	0	1	17
415.9482421875	0.0999936365628855	851862	345	11	stim11_sf2_pattern1_cont2_shape2.png	2	13	0	513.241530251104	513.341523887666	0.0999936365628855	stim11_sf2_pattern1_cont2_shape2.png	2	1	2	2	1	4	0	0	0	0	0	0	0	0	0	0	0	0	1	17
416.4482421875	0.0999956892846967	852886	346	13	stim13_sf2_pattern2_cont1_shape2.png	2	14	0	513.741521013857	513.841516703141	0.0999956892846967	stim13_sf2_pattern2_cont1_shape2.png	2	2	1	2	1	3	0	0	0	0	0	0	0	0	0	0	0	0	1	17
416.94775390625	0.0999945163011944	853909	347	0	stim00_sf1_pattern1_cont1_shape1.png	2	15	0	514.241510603626	514.341505119927	0.0999945163011944	stim00_sf1_pattern1_cont1_shape1.png	1	1	1	1	1	2	0	0	0	0	0	0	0	0	0	0	0	0	1	17
417.44775390625	0.100048473552306	854933	348	3	stim03_sf1_pattern1_cont2_shape2.png	2	16	0	514.741448875357	514.84149734891	0.100048473552306	stim03_sf1_pattern1_cont2_shape2.png	1	1	2	2	1	4	0	0	0	0	0	0	0	0	0	0	0	0	1	17
417.94775390625	0.0999992082361132	855957	349	5	stim05_sf1_pattern2_cont1_shape2.png	2	17	0	515.241489489919	515.341488698155	0.0999992082361132	stim05_sf1_pattern2_cont1_shape2.png	1	2	1	2	1	3	0	0	0	0	0	0	0	0	0	0	0	0	1	17
418.44775390625	0.0999769215454762	856981	350	11	stim11_sf2_pattern1_cont2_shape2.png	2	18	0	515.741483185132	515.841460106677	0.0999769215454762	stim11_sf2_pattern1_cont2_shape2.png	2	1	2	2	1	4	0	0	0	0	0	0	0	0	0	0	0	0	1	17
418.94775390625	0.0999945163011944	858005	351	7	stim07_sf1_pattern2_cont2_shape2.png	2	19	0	516.241475120868	516.34146963717	0.0999945163011944	stim07_sf1_pattern2_cont2_shape2.png	1	2	2	2	1	3	0	0	0	0	0	0	0	0	0	0	0	0	1	17
419.44775390625	0.100004193417135	859029	352	2	stim02_sf1_pattern1_cont2_shape1.png	2	20	0	516.741455033522	516.841459226939	0.100004193417135	stim02_sf1_pattern1_cont2_shape1.png	1	1	2	1	1	2	0	0	0	0	0	0	0	0	0	0	0	0	1	17
419.94775390625	0.0999980352526109	860053	353	0	stim00_sf1_pattern1_cont1_shape1.png	2	21	0	517.241454593653	517.341452628906	0.0999980352526109	stim00_sf1_pattern1_cont1_shape1.png	1	1	1	1	1	2	0	0	0	0	0	0	0	0	0	0	0	0	1	17
420.44775390625	0.0999959825303449	861077	354	14	stim14_sf2_pattern2_cont2_shape1.png	2	22	0	517.74144946185	517.84144544438	0.0999959825303449	stim14_sf2_pattern2_cont2_shape1.png	2	2	2	1	1	1	0	0	0	0	0	0	0	0	0	0	0	0	1	17
420.94775390625	0.0999745755780168	862101	355	1	stim01_sf1_pattern1_cont1_shape2.png	2	23	0	518.241437878635	518.341412454213	0.0999745755780168	stim01_sf1_pattern1_cont1_shape2.png	1	1	1	2	1	4	0	0	0	0	0	0	0	0	0	0	0	0	1	17
421.44775390625	0.100045247846992	863125	356	13	stim13_sf2_pattern2_cont1_shape2.png	2	24	0	518.741381135548	518.841426383395	0.100045247846992	stim13_sf2_pattern2_cont1_shape2.png	2	2	1	2	1	3	0	0	0	0	0	0	0	0	0	0	0	0	1	17
421.94775390625	0.0999678309217416	864149	357	15	stim15_sf2_pattern2_cont2_shape2.png	2	25	0	519.241420577125	519.341388408047	0.0999678309217416	stim15_sf2_pattern2_cont2_shape2.png	2	2	2	2	1	3	0	0	0	0	0	0	0	0	0	0	0	0	1	17
422.44775390625	0.100024134140313	865173	358	9	stim09_sf2_pattern1_cont1_shape2.png	2	26	0	519.741374684137	519.841398818277	0.100024134140313	stim09_sf2_pattern1_cont1_shape2.png	2	1	1	2	1	4	0	0	0	0	0	0	0	0	0	0	0	0	1	17
422.94775390625	0.0999760418071673	866197	359	6	stim06_sf1_pattern2_cont2_shape1.png	2	27	0	520.241395651221	520.341371693029	0.0999760418071673	stim06_sf1_pattern2_cont2_shape1.png	1	2	2	1	1	1	0	0	0	0	0	0	0	0	0	0	0	0	1	17
423.44775390625	0.100036157223258	867221	360	4	stim04_sf1_pattern2_cont1_shape1.png	2	28	1	520.74134565279	520.841381810013	0.100036157223258	stim04_sf1_pattern2_cont1_shape1.png	1	2	1	1	1	1	0	0	0	0	0	0	0	0	0	0	0	0	1	17
423.94775390625	0.0999728161023086	868245	361	4	stim04_sf1_pattern2_cont1_shape1.png	2	29	1	521.241378642957	521.34135145906	0.0999728161023086	stim04_sf1_pattern2_cont1_shape1.png	1	2	1	1	1	1	0	0	0	0	0	0	0	0	0	0	0	0	1	17
424.44775390625	0.100029999058734	869269	362	5	stim05_sf1_pattern2_cont1_shape2.png	2	30	2	521.741343306823	521.841373305881	0.100029999058734	stim05_sf1_pattern2_cont1_shape2.png	1	2	1	2	1	3	0	0	0	0	0	0	0	0	0	0	0	0	1	17
424.94775390625	0.0999886513827732	870293	363	13	stim13_sf2_pattern2_cont1_shape2.png	2	31	2	522.241373657776	522.341362309159	0.0999886513827732	stim13_sf2_pattern2_cont1_shape2.png	2	2	1	2	1	3	0	0	0	0	0	0	0	0	0	0	0	0	1	17
425.44775390625	0.0999604997732604	871317	364	8	stim08_sf2_pattern1_cont1_shape1.png	2	32	0	522.741374684137	522.84133518391	0.0999604997732604	stim08_sf2_pattern1_cont1_shape1.png	2	1	1	1	1	2	0	0	0	0	0	0	0	0	0	0	0	0	1	17
425.94775390625	0.0999936365633403	872341	365	12	stim12_sf2_pattern2_cont1_shape1.png	2	33	0	523.241347265643	523.341340902206	0.0999936365633403	stim12_sf2_pattern2_cont1_shape1.png	2	2	1	1	1	1	0	0	0	0	0	0	0	0	0	0	0	0	1	17
426.44775390625	0.099997448760405	873365	366	10	stim10_sf2_pattern1_cont2_shape1.png	2	34	0	523.741345946036	523.841343394797	0.099997448760405	stim10_sf2_pattern1_cont2_shape1.png	2	1	2	1	1	2	0	0	0	0	0	0	0	0	0	0	0	0	1	17
426.94775390625	0.099970176889201	874389	367	4	stim04_sf1_pattern2_cont1_shape1.png	2	35	0	524.241326445182	524.341296622071	0.099970176889201	stim04_sf1_pattern2_cont1_shape1.png	1	2	1	1	1	1	0	0	0	0	0	0	0	0	0	0	0	0	1	17
427.44775390625	0.0999980352526109	875413	368	2	stim02_sf1_pattern1_cont2_shape1.png	2	36	0	524.741316621443	524.841314656695	0.0999980352526109	stim02_sf1_pattern1_cont2_shape1.png	1	1	2	1	1	2	0	0	0	0	0	0	0	0	0	0	0	0	1	17
427.94775390625	0.0999980352521561	876437	369	12	stim12_sf2_pattern2_cont1_shape1.png	2	37	0	525.241322046493	525.341320081745	0.0999980352521561	stim12_sf2_pattern2_cont1_shape1.png	2	2	1	1	1	1	0	0	0	0	0	0	0	0	0	0	0	0	1	17
428.44775390625	0.0999816134799403	877461	370	13	stim13_sf2_pattern2_cont1_shape2.png	2	38	0	525.741315448459	525.841297061939	0.0999816134799403	stim13_sf2_pattern2_cont1_shape2.png	2	2	1	2	1	3	0	0	0	0	0	0	0	0	0	0	0	0	1	17
428.94775390625	0.0999936365633403	878485	371	10	stim10_sf2_pattern1_cont2_shape1.png	2	39	0	526.241295067867	526.341288704431	0.0999936365633403	stim10_sf2_pattern1_cont2_shape1.png	2	1	2	1	1	2	0	0	0	0	0	0	0	0	0	0	0	0	1	17
429.44775390625	0.099986891907065	879509	372	11	stim11_sf2_pattern1_cont2_shape2.png	2	40	0	526.741279085964	526.841265977871	0.099986891907065	stim11_sf2_pattern1_cont2_shape2.png	2	1	2	2	1	4	0	0	0	0	0	0	0	0	0	0	0	0	1	17
429.94775390625	0.0999942230550914	880533	373	9	stim09_sf2_pattern1_cont1_shape2.png	2	41	0	527.241272781177	527.341267004232	0.0999942230550914	stim09_sf2_pattern1_cont1_shape2.png	2	1	1	2	1	4	0	0	0	0	0	0	0	0	0	0	0	0	1	17
430.44775390625	0.0999821999716914	881557	374	6	stim06_sf1_pattern2_cont2_shape1.png	2	42	0	527.74127791298	527.841260112952	0.0999821999716914	stim06_sf1_pattern2_cont2_shape1.png	1	2	2	1	1	1	0	0	0	0	0	0	0	0	0	0	0	0	1	17
430.94775390625	0.100000381219616	882581	375	8	stim08_sf2_pattern1_cont1_shape1.png	2	43	0	528.241251667469	528.341252048689	0.100000381219616	stim08_sf2_pattern1_cont1_shape1.png	2	1	1	1	1	2	0	0	0	0	0	0	0	0	0	0	0	0	1	17
431.44775390625	0.0999912905958809	883605	376	4	stim04_sf1_pattern2_cont1_shape1.png	2	44	0	528.741251814092	528.841243104688	0.0999912905958809	stim04_sf1_pattern2_cont1_shape1.png	1	2	1	1	1	1	0	0	0	0	0	0	0	0	0	0	0	0	1	17
431.94775390625	0.0999951027929455	884629	377	15	stim15_sf2_pattern2_cont2_shape2.png	2	45	0	529.241239644386	529.341234747179	0.0999951027929455	stim15_sf2_pattern2_cont2_shape2.png	2	2	2	2	1	3	0	0	0	0	0	0	0	0	0	0	0	0	1	17
432.44775390625	0.100007419121994	885653	378	0	stim00_sf1_pattern1_cont1_shape1.png	2	46	0	529.741228061172	529.841235480294	0.100007419121994	stim00_sf1_pattern1_cont1_shape1.png	1	1	1	1	1	2	0	0	0	0	0	0	0	0	0	0	0	0	1	17
432.94775390625	0.099997448760405	886677	379	3	stim03_sf1_pattern1_cont2_shape2.png	2	47	0	530.241216184712	530.341213633472	0.099997448760405	stim03_sf1_pattern1_cont2_shape2.png	1	1	2	2	1	4	0	0	0	0	0	0	0	0	0	0	0	0	1	17
433.44775390625	0.100159907005946	887701	380	1	stim01_sf1_pattern1_cont1_shape2.png	2	48	0	530.741208413694	530.8413683207	0.100159907005946	stim01_sf1_pattern1_cont1_shape2.png	1	1	1	2	1	4	0	0	0	0	0	0	0	0	0	0	0	0	1	17
433.94775390625	0.0999986217439073	888725	381	7	stim07_sf1_pattern2_cont2_shape2.png	2	49	0	531.241197123727	531.34119574547	0.0999986217439073	stim07_sf1_pattern2_cont2_shape2.png	1	2	2	2	1	3	0	0	0	0	0	0	0	0	0	0	0	0	1	17
434.447265625	0.100069000767235	889748	382	14	stim14_sf2_pattern2_cont2_shape1.png	2	50	0	531.741121612899	531.841190613667	0.100069000767235	stim14_sf2_pattern2_cont2_shape1.png	2	2	2	1	1	1	0	0	0	0	0	0	0	0	0	0	0	0	1	17
434.947265625	0.0999992082361132	890772	383	5	stim05_sf1_pattern2_cont1_shape2.png	2	51	0	532.241178649233	532.341177857469	0.0999992082361132	stim05_sf1_pattern2_cont1_shape2.png	1	2	1	2	1	3	0	0	0	0	0	0	0	0	0	0	0	0	1	17
435.447265625	0.100054338470727	891796	384	1	stim01_sf1_pattern1_cont1_shape2.png	2	52	0	532.741122199391	532.841176537862	0.100054338470727	stim01_sf1_pattern1_cont1_shape2.png	1	1	1	2	1	4	0	0	0	0	0	0	0	0	0	0	0	0	1	17
435.947265625	0.100038209944614	892820	385	0	stim00_sf1_pattern1_cont1_shape1.png	2	53	0	533.241134955589	533.341173165534	0.100038209944614	stim00_sf1_pattern1_cont1_shape1.png	1	1	1	1	1	2	0	0	0	0	0	0	0	0	0	0	0	0	1	17
436.447265625	0.100029999058734	893844	386	13	stim13_sf2_pattern2_cont1_shape2.png	2	54	0	533.741127771064	533.841157770123	0.100029999058734	stim13_sf2_pattern2_cont1_shape2.png	2	2	1	2	1	3	0	0	0	0	0	0	0	0	0	0	0	0	1	17
436.947265625	0.0999992082356584	894868	387	11	stim11_sf2_pattern1_cont2_shape2.png	2	55	0	534.241144632705	534.341143840941	0.0999992082356584	stim11_sf2_pattern1_cont2_shape2.png	2	1	2	2	1	4	0	0	0	0	0	0	0	0	0	0	0	0	1	17
437.447265625	0.100023254402004	895892	388	7	stim07_sf1_pattern2_cont2_shape2.png	2	56	0	534.741115454735	534.841138709137	0.100023254402004	stim07_sf1_pattern2_cont2_shape2.png	1	2	2	2	1	3	0	0	0	0	0	0	0	0	0	0	0	0	1	17
437.947265625	0.0999962757764479	896916	389	9	stim09_sf2_pattern1_cont1_shape2.png	2	57	0	535.24112263926	535.341118915037	0.0999962757764479	stim09_sf2_pattern1_cont1_shape2.png	2	1	1	2	1	4	0	0	0	0	0	0	0	0	0	0	0	0	1	17
438.447265625	0.0999499429194657	897940	390	5	stim05_sf1_pattern2_cont1_shape2.png	2	58	0	535.741116920964	535.841066863884	0.0999499429194657	stim05_sf1_pattern2_cont1_shape2.png	1	2	1	2	1	3	0	0	0	0	0	0	0	0	0	0	0	0	1	17
438.947265625	0.0999736958397079	898964	391	12	stim12_sf2_pattern2_cont1_shape1.png	2	59	0	536.241105044504	536.341078740344	0.0999736958397079	stim12_sf2_pattern2_cont1_shape1.png	2	2	1	1	1	1	0	0	0	0	0	0	0	0	0	0	0	0	1	17
439.447265625	0.100058443913895	899988	392	8	stim08_sf2_pattern1_cont1_shape1.png	2	60	0	536.741033932366	536.84109237628	0.100058443913895	stim08_sf2_pattern1_cont1_shape1.png	2	1	1	1	1	2	0	0	0	0	0	0	0	0	0	0	0	0	1	17
439.947265625	0.099996862268199	901012	393	4	stim04_sf1_pattern2_cont1_shape1.png	2	61	0	537.241091261946	537.341088124214	0.099996862268199	stim04_sf1_pattern2_cont1_shape1.png	1	2	1	1	1	1	0	0	0	0	0	0	0	0	0	0	0	0	1	17
440.447265625	0.100024134140313	902036	394	3	stim03_sf1_pattern1_cont2_shape2.png	2	62	0	537.741056219057	537.841080353197	0.100024134140313	stim03_sf1_pattern1_cont2_shape2.png	1	1	2	2	1	4	0	0	0	0	0	0	0	0	0	0	0	0	1	17
440.947265625	0.100003900170577	903060	395	2	stim02_sf1_pattern1_cont2_shape1.png	2	63	0	538.241073373944	538.341077274114	0.100003900170577	stim02_sf1_pattern1_cont2_shape1.png	1	1	2	1	1	2	0	0	0	0	0	0	0	0	0	0	0	0	1	17
441.447265625	0.100061376373105	904084	396	6	stim06_sf1_pattern2_cont2_shape1.png	2	64	0	538.740991998198	538.841053374571	0.100061376373105	stim06_sf1_pattern2_cont2_shape1.png	1	2	2	1	1	1	0	0	0	0	0	0	0	0	0	0	0	0	1	17
441.947265625	0.0999953960390485	905108	397	10	stim10_sf2_pattern1_cont2_shape1.png	2	65	0	539.24106428332	539.341059679359	0.0999953960390485	stim10_sf2_pattern1_cont2_shape1.png	2	1	2	1	1	2	0	0	0	0	0	0	0	0	0	0	0	0	1	17
442.447265625	0.100036157223258	906132	398	15	stim15_sf2_pattern2_cont2_shape2.png	2	66	0	539.741010179446	539.841046336669	0.100036157223258	stim15_sf2_pattern2_cont2_shape2.png	2	2	2	2	1	3	0	0	0	0	0	0	0	0	0	0	0	0	1	17
442.947265625	0.0999971555147567	907156	399	14	stim14_sf2_pattern2_cont2_shape1.png	2	67	0	540.241035838465	540.341032993979	0.0999971555147567	stim14_sf2_pattern2_cont2_shape1.png	2	2	2	1	1	1	0	0	0	0	0	0	0	0	0	0	0	0	1	17
443.447265625	0.100000674465264	908180	400	4	stim04_sf1_pattern2_cont1_shape1.png	2	68	0	540.741046835187	540.841047509653	0.100000674465264	stim04_sf1_pattern2_cont1_shape1.png	1	2	1	1	1	1	0	0	0	0	0	0	0	0	0	0	0	0	1	17
443.947265625	0.0999948095468426	909204	401	11	stim11_sf2_pattern1_cont2_shape2.png	2	69	0	541.241016777479	541.341011587026	0.0999948095468426	stim11_sf2_pattern1_cont2_shape2.png	2	1	2	2	1	4	0	0	0	0	0	0	0	0	0	0	0	0	1	17
444.447265625	0.10002149492675	910228	402	12	stim12_sf2_pattern2_cont1_shape1.png	2	70	0	541.740957395178	541.840978890105	0.10002149492675	stim12_sf2_pattern2_cont1_shape1.png	2	2	1	1	1	1	0	0	0	0	0	0	0	0	0	0	0	0	1	17
444.947265625	0.0999945163011944	911252	403	2	stim02_sf1_pattern1_cont2_shape1.png	2	71	0	542.240998889477	542.340993405779	0.0999945163011944	stim02_sf1_pattern1_cont2_shape1.png	1	1	2	1	1	2	0	0	0	0	0	0	0	0	0	0	0	0	1	17
445.447265625	0.099997155514302	912276	404	15	stim15_sf2_pattern2_cont2_shape2.png	2	72	0	542.740989652231	542.840986807745	0.099997155514302	stim15_sf2_pattern2_cont2_shape2.png	2	2	2	2	1	3	0	0	0	0	0	0	0	0	0	0	0	0	1	17
445.947265625	0.0999951027929455	913300	405	0	stim00_sf1_pattern1_cont1_shape1.png	2	73	0	543.240981881213	543.340976984006	0.0999951027929455	stim00_sf1_pattern1_cont1_shape1.png	1	1	1	1	1	2	0	0	0	0	0	0	0	0	0	0	0	0	1	17
446.447265625	0.100006246138491	914324	406	9	stim09_sf2_pattern1_cont1_shape2.png	2	74	0	543.740961207375	543.840967453514	0.100006246138491	stim09_sf2_pattern1_cont1_shape2.png	2	1	1	2	1	4	0	0	0	0	0	0	0	0	0	0	0	0	1	17
446.947265625	0.0999959825307997	915348	407	14	stim14_sf2_pattern2_cont2_shape1.png	2	75	0	544.24096194049	544.340957923021	0.0999959825307997	stim14_sf2_pattern2_cont2_shape1.png	2	2	2	1	1	1	0	0	0	0	0	0	0	0	0	0	0	0	1	17
447.447265625	0.100000087973967	916372	408	8	stim08_sf2_pattern1_cont1_shape1.png	2	76	0	544.740948891046	544.84094897902	0.100000087973967	stim08_sf2_pattern1_cont1_shape1.png	2	1	1	1	1	2	0	0	0	0	0	0	0	0	0	0	0	0	1	17
447.947265625	0.0999956892846967	917396	409	6	stim06_sf1_pattern2_cont2_shape1.png	2	77	0	545.240943465997	545.340939155281	0.0999956892846967	stim06_sf1_pattern2_cont2_shape1.png	1	2	2	1	1	1	0	0	0	0	0	0	0	0	0	0	0	0	1	17
448.447265625	0.0999816134799403	918420	410	5	stim05_sf1_pattern2_cont1_shape2.png	2	78	0	545.740904610911	545.840886224391	0.0999816134799403	stim05_sf1_pattern2_cont1_shape2.png	1	2	1	2	1	3	0	0	0	0	0	0	0	0	0	0	0	0	1	17
448.947265625	0.0999977420060532	919444	411	3	stim03_sf1_pattern1_cont2_shape2.png	2	79	0	546.240924991503	546.340922733509	0.0999977420060532	stim03_sf1_pattern1_cont2_shape2.png	1	1	2	2	1	4	0	0	0	0	0	0	0	0	0	0	0	0	1	17
449.447265625	0.100051992503268	920468	412	1	stim01_sf1_pattern1_cont1_shape2.png	2	80	0	546.740864436219	546.840916428722	0.100051992503268	stim01_sf1_pattern1_cont1_shape2.png	1	1	1	2	1	4	0	0	0	0	0	0	0	0	0	0	0	0	1	17
449.947265625	0.0999983284982591	921492	413	10	stim10_sf2_pattern1_cont2_shape1.png	2	81	0	547.240905637272	547.34090396577	0.0999983284982591	stim10_sf2_pattern1_cont2_shape1.png	2	1	2	1	1	2	0	0	0	0	0	0	0	0	0	0	0	0	1	17
450.447265625	0.100020321942793	922516	414	7	stim07_sf1_pattern2_cont2_shape2.png	2	82	0	547.740874113334	547.840894435277	0.100020321942793	stim07_sf1_pattern2_cont2_shape2.png	1	2	2	2	1	3	0	0	0	0	0	0	0	0	0	0	0	0	1	17
450.947265625	0.0999901176119238	923540	415	13	stim13_sf2_pattern2_cont1_shape2.png	2	83	0	548.240891561467	548.340881679079	0.0999901176119238	stim13_sf2_pattern2_cont1_shape2.png	2	2	1	2	1	3	0	0	0	0	0	0	0	0	0	0	0	0	1	17
451.447265625	0.10002002869669	924564	416	8	stim08_sf2_pattern1_cont1_shape1.png	2	84	0	548.740846548217	548.840866576913	0.10002002869669	stim08_sf2_pattern1_cont1_shape1.png	2	1	1	1	1	2	0	0	0	0	0	0	0	0	0	0	0	0	1	17
451.94677734375	0.099969883643098	925587	417	3	stim03_sf1_pattern1_cont2_shape2.png	2	85	0	549.24087983163	549.340849715273	0.099969883643098	stim03_sf1_pattern1_cont2_shape2.png	1	1	2	2	1	4	0	0	0	0	0	0	0	0	0	0	0	0	1	17
452.44677734375	0.100004486662783	926611	418	6	stim06_sf1_pattern2_cont2_shape1.png	2	86	0	549.7408585713	549.840863057962	0.100004486662783	stim06_sf1_pattern2_cont2_shape1.png	1	2	2	1	1	1	0	0	0	0	0	0	0	0	0	0	0	0	1	17
452.94677734375	0.0999722296105574	927635	419	0	stim00_sf1_pattern1_cont1_shape1.png	2	87	0	550.240857544939	550.34082977455	0.0999722296105574	stim00_sf1_pattern1_cont1_shape1.png	1	1	1	1	1	2	0	0	0	0	0	0	0	0	0	0	0	0	1	17
453.44677734375	0.100059616897852	928659	420	4	stim04_sf1_pattern2_cont1_shape1.png	2	88	0	550.740777342177	550.840836959075	0.100059616897852	stim04_sf1_pattern2_cont1_shape1.png	1	2	1	1	1	1	0	0	0	0	0	0	0	0	0	0	0	0	1	17
453.94677734375	0.100012697548664	929683	421	15	stim15_sf2_pattern2_cont2_shape2.png	2	89	0	551.240824408149	551.340837105698	0.100012697548664	stim15_sf2_pattern2_cont2_shape2.png	2	2	2	2	1	3	0	0	0	0	0	0	0	0	0	0	0	0	1	17
454.44677734375	0.100031758534442	930707	422	1	stim01_sf1_pattern1_cont1_shape2.png	2	90	0	551.740787605785	551.840819364319	0.100031758534442	stim01_sf1_pattern1_cont1_shape2.png	1	1	1	2	1	4	0	0	0	0	0	0	0	0	0	0	0	0	1	17
454.94677734375	0.099987185153168	931731	423	14	stim14_sf2_pattern2_cont2_shape1.png	2	91	0	552.240814731033	552.340801916186	0.099987185153168	stim14_sf2_pattern2_cont2_shape1.png	2	2	2	1	1	1	0	0	0	0	0	0	0	0	0	0	0	0	1	17
455.44677734375	0.100014163778269	932755	424	2	stim02_sf1_pattern1_cont2_shape1.png	2	92	0	552.740796109917	552.840810273695	0.100014163778269	stim02_sf1_pattern1_cont2_shape1.png	1	1	2	1	1	2	0	0	0	0	0	0	0	0	0	0	0	0	1	17
455.94677734375	0.099997155514302	933779	425	7	stim07_sf1_pattern2_cont2_shape2.png	2	93	0	553.240807399885	553.340804555399	0.099997155514302	stim07_sf1_pattern2_cont2_shape2.png	1	2	2	2	1	3	0	0	0	0	0	0	0	0	0	0	0	0	1	17
456.44677734375	0.100058150667792	934803	426	12	stim12_sf2_pattern2_cont1_shape1.png	2	94	0	553.740729836336	553.840787987004	0.100058150667792	stim12_sf2_pattern2_cont1_shape1.png	2	2	1	1	1	1	0	0	0	0	0	0	0	0	0	0	0	0	1	17
456.94677734375	0.100001847449221	935827	427	9	stim09_sf2_pattern1_cont1_shape2.png	2	95	0	554.240785113194	554.340786960644	0.100001847449221	stim09_sf2_pattern1_cont1_shape2.png	2	1	1	2	1	4	0	0	0	0	0	0	0	0	0	0	0	0	1	17
457.44677734375	0.100061962865311	936851	428	11	stim11_sf2_pattern1_cont2_shape2.png	2	96	0	554.740705496924	554.840767459789	0.100061962865311	stim11_sf2_pattern1_cont2_shape2.png	2	1	2	2	1	4	0	0	0	0	0	0	0	0	0	0	0	0	1	17
457.94677734375	0.0999953960385938	937875	429	5	stim05_sf1_pattern2_cont1_shape2.png	2	97	0	555.240761946766	555.340757342804	0.0999953960385938	stim05_sf1_pattern2_cont1_shape2.png	1	2	1	2	1	3	0	0	0	0	0	0	0	0	0	0	0	0	1	17
458.44677734375	0.100003900171032	938899	430	13	stim13_sf2_pattern2_cont1_shape2.png	2	98	0	555.740755641978	555.840759542149	0.100003900171032	stim13_sf2_pattern2_cont1_shape2.png	2	2	1	2	1	3	0	0	0	0	0	0	0	0	0	0	0	0	1	17
458.94677734375	0.0999992082356584	939923	431	10	stim10_sf2_pattern1_cont2_shape1.png	2	99	0	556.24074581824	556.340745026475	0.0999992082356584	stim10_sf2_pattern1_cont2_shape1.png	2	1	2	1	1	2	0	0	0	0	0	0	0	0	0	0	0	0	1	17
459.44677734375	0.100002140695324	940947	432	6	stim06_sf1_pattern2_cont2_shape1.png	2	100	0	556.740734528271	556.840736668967	0.100002140695324	stim06_sf1_pattern2_cont2_shape1.png	1	2	2	1	1	1	0	0	0	0	0	0	0	0	0	0	0	0	1	17
459.94677734375	0.0999775080372274	941971	433	5	stim05_sf1_pattern2_cont1_shape2.png	2	101	0	557.240724704533	557.34070221257	0.0999775080372274	stim05_sf1_pattern2_cont1_shape2.png	1	2	1	2	1	3	0	0	0	0	0	0	0	0	0	0	0	0	1	17
460.44677734375	0.100060496635251	942995	434	10	stim10_sf2_pattern1_cont2_shape1.png	2	102	1	557.740652712657	557.840713209292	0.100060496635251	stim10_sf2_pattern1_cont2_shape1.png	2	1	2	1	1	2	0	0	0	0	0	0	0	0	0	0	0	0	1	17
460.94677734375	0.100000967711367	944019	435	10	stim10_sf2_pattern1_cont2_shape1.png	2	103	1	558.240703004334	558.340703972045	0.100000967711367	stim10_sf2_pattern1_cont2_shape1.png	2	1	2	1	1	2	0	0	0	0	0	0	0	0	0	0	0	0	1	17
461.44677734375	0.100008298859848	945043	436	15	stim15_sf2_pattern2_cont2_shape2.png	2	104	2	558.740671480396	558.840679779256	0.100008298859848	stim15_sf2_pattern2_cont2_shape2.png	2	2	2	2	1	3	0	0	0	0	0	0	0	0	0	0	0	0	1	17
461.94677734375	0.0999983284982591	946067	437	0	stim00_sf1_pattern1_cont1_shape1.png	2	105	2	559.240687755545	559.340686084044	0.0999983284982591	stim00_sf1_pattern1_cont1_shape1.png	1	1	1	1	1	2	0	0	0	0	0	0	0	0	0	0	0	0	1	17
462.44677734375	0.100028826074777	947091	438	10	stim10_sf2_pattern1_cont2_shape1.png	2	106	0	559.740648020722	559.840676846797	0.100028826074777	stim10_sf2_pattern1_cont2_shape1.png	2	1	2	1	1	2	0	0	0	0	0	0	0	0	0	0	0	0	1	17
462.94677734375	0.0999939298094432	948115	439	2	stim02_sf1_pattern1_cont2_shape1.png	2	107	0	560.240674266232	560.340668196042	0.0999939298094432	stim02_sf1_pattern1_cont2_shape1.png	1	1	2	1	1	2	0	0	0	0	0	0	0	0	0	0	0	0	1	17
463.44677734375	0.10001709623748	949139	440	9	stim09_sf2_pattern1_cont1_shape2.png	2	108	0	560.740638636852	560.84065573309	0.10001709623748	stim09_sf2_pattern1_cont1_shape2.png	2	1	1	2	1	4	0	0	0	0	0	0	0	0	0	0	0	0	1	17
463.94677734375	0.0999951027929455	950163	441	15	stim15_sf2_pattern2_cont2_shape2.png	2	109	0	561.240654032263	561.340649135056	0.0999951027929455	stim15_sf2_pattern2_cont2_shape2.png	2	2	2	2	1	3	0	0	0	0	0	0	0	0	0	0	0	0	1	17
464.44677734375	0.0999951027929455	951187	442	3	stim03_sf1_pattern1_cont2_shape2.png	2	110	0	561.740643915279	561.840639018072	0.0999951027929455	stim03_sf1_pattern1_cont2_shape2.png	1	1	2	2	1	4	0	0	0	0	0	0	0	0	0	0	0	0	1	17
464.94677734375	0.0999977420065079	952211	443	0	stim00_sf1_pattern1_cont1_shape1.png	2	111	0	562.240633798294	562.3406315403	0.0999977420065079	stim00_sf1_pattern1_cont1_shape1.png	1	1	1	1	1	2	0	0	0	0	0	0	0	0	0	0	0	0	1	17
465.44677734375	0.100016216499625	953235	444	1	stim01_sf1_pattern1_cont1_shape2.png	2	112	0	562.740605500062	562.840621716562	0.100016216499625	stim01_sf1_pattern1_cont1_shape2.png	1	1	1	2	1	4	0	0	0	0	0	0	0	0	0	0	0	0	1	17
465.94677734375	0.0999983284982591	954259	445	8	stim08_sf2_pattern1_cont1_shape1.png	2	113	0	563.240615910292	563.340614238791	0.0999983284982591	stim08_sf2_pattern1_cont1_shape1.png	2	1	1	1	1	2	0	0	0	0	0	0	0	0	0	0	0	0	1	17
466.44677734375	0.100006246138491	955283	446	14	stim14_sf2_pattern2_cont2_shape1.png	2	114	0	563.740583213371	563.840589459509	0.100006246138491	stim14_sf2_pattern2_cont2_shape1.png	2	2	2	1	1	1	0	0	0	0	0	0	0	0	0	0	0	0	1	17
466.94677734375	0.0999953960390485	956307	447	4	stim04_sf1_pattern2_cont1_shape1.png	2	115	0	564.240598315536	564.340593711575	0.0999953960390485	stim04_sf1_pattern2_cont1_shape1.png	1	2	1	1	1	1	0	0	0	0	0	0	0	0	0	0	0	0	1	17
467.44677734375	0.0999763350532703	957331	448	7	stim07_sf1_pattern2_cont2_shape2.png	2	116	0	564.740590837765	564.840567172819	0.0999763350532703	stim07_sf1_pattern2_cont2_shape2.png	1	2	2	2	1	3	0	0	0	0	0	0	0	0	0	0	0	0	1	17
