onset	duration	onsetsample	eventnumber	stimnumber	stimname	blocknumber	trialnumber	istarget	time_stimon	time_stimoff	stimdur	stimfilename	spatial_freq	pattern	contrast	shape	is_fast_stream	category	ppt_1_response	ppt_1_keypressed	ppt_1_rt	ppt_1_correct	ppt_2_response	ppt_2_keypressed	ppt_2_rt	ppt_2_correct	button1	button2	button3	button4	task_part_number	subjectnr
107.32958984375	0.0999939591856673	219811	0	11	stim11_sf2_pattern1_cont2_shape2.png	0	0	0	232.478660381874	232.57865434106	0.0999939591856673	stim11_sf2_pattern1_cont2_shape2.png	2	1	2	2	1	1	0	0	0	0	0	0	0	0	0	0	0	0	1	9
107.837890625	0.0999951321591652	220852	1	1	stim01_sf1_pattern1_cont1_shape2.png	0	1	0	232.986971780598	233.086966912757	0.0999951321591652	stim01_sf1_pattern1_cont1_shape2.png	1	1	1	2	1	4	0	0	0	0	0	0	0	0	0	0	0	0	1	9
108.337890625	0.104360353956508	221876	2	14	stim14_sf2_pattern2_cont2_shape1.png	0	2	0	233.507594418523	233.611954772479	0.104360353956508	stim14_sf2_pattern2_cont2_shape1.png	2	2	2	1	1	2	0	0	0	0	0	0	0	0	0	0	0	0	1	9
108.86328125	0.0999942524285871	222952	3	3	stim03_sf1_pattern1_cont2_shape2.png	0	3	0	234.011951429504	234.111945681932	0.0999942524285871	stim03_sf1_pattern1_cont2_shape2.png	1	1	2	2	1	4	0	0	0	0	0	0	0	0	0	0	0	0	1	9
109.36328125	0.0999628753797879	223976	4	12	stim12_sf2_pattern2_cont1_shape1.png	0	4	0	234.511966678163	234.611929553543	0.0999628753797879	stim12_sf2_pattern2_cont1_shape1.png	2	2	1	1	1	2	0	0	0	0	0	0	0	0	0	0	0	0	1	9
109.86328125	0.100001583516132	225000	5	10	stim10_sf2_pattern1_cont2_shape1.png	0	5	0	235.011943805173	235.111945388689	0.100001583516132	stim10_sf2_pattern1_cont2_shape1.png	2	1	2	1	1	1	0	0	0	0	0	0	0	0	0	0	0	0	1	9
110.36279296875	0.0999998240549758	226023	6	15	stim15_sf2_pattern2_cont2_shape2.png	0	6	0	235.511914774073	235.611914598128	0.0999998240549758	stim15_sf2_pattern2_cont2_shape2.png	2	2	2	2	1	2	0	0	0	0	0	0	0	0	0	0	0	0	1	9
110.86279296875	0.0999329645492253	227047	7	7	stim07_sf1_pattern2_cont2_shape2.png	0	7	0	236.011966678163	236.111899642712	0.0999329645492253	stim07_sf1_pattern2_cont2_shape2.png	1	2	2	2	1	3	0	0	0	0	0	0	0	0	0	0	0	0	1	9
111.36279296875	0.100001876757233	228071	8	5	stim05_sf1_pattern2_cont1_shape2.png	0	8	0	236.511893660547	236.611895537304	0.100001876757233	stim05_sf1_pattern2_cont1_shape2.png	1	2	1	2	1	3	0	0	0	0	0	0	0	0	0	0	0	0	1	9
111.86279296875	0.100004809193706	229095	9	13	stim13_sf2_pattern2_cont1_shape2.png	0	9	0	237.011883983512	237.111888792706	0.100004809193706	stim13_sf2_pattern2_cont1_shape2.png	2	2	1	2	1	2	0	0	0	0	0	0	0	0	0	0	0	0	1	9
112.36279296875	0.099997478106161	230119	10	2	stim02_sf1_pattern1_cont2_shape1.png	0	10	0	237.511850847004	237.61184832511	0.099997478106161	stim02_sf1_pattern1_cont2_shape1.png	1	1	2	1	1	4	0	0	0	0	0	0	0	0	0	0	0	0	1	9
112.86279296875	0.0999778307959787	231143	11	6	stim06_sf1_pattern2_cont2_shape1.png	0	11	0	238.011854365926	238.111832196722	0.0999778307959787	stim06_sf1_pattern2_cont2_shape1.png	1	2	2	1	1	3	0	0	0	0	0	0	0	0	0	0	0	0	1	9
113.36279296875	0.0999678605185181	232167	12	0	stim00_sf1_pattern1_cont1_shape1.png	0	12	0	238.511824455096	238.611792315614	0.0999678605185181	stim00_sf1_pattern1_cont1_shape1.png	1	1	1	1	1	4	0	0	0	0	0	0	0	0	0	0	0	0	1	9
113.86279296875	0.100014779469348	233191	13	4	stim04_sf1_pattern2_cont1_shape1.png	0	13	0	239.011806274002	239.111821053471	0.100014779469348	stim04_sf1_pattern2_cont1_shape1.png	1	2	1	1	1	3	0	0	0	0	0	0	0	0	0	0	0	0	1	9
114.36279296875	0.0999927862121694	234215	14	8	stim08_sf2_pattern1_cont1_shape1.png	0	14	0	239.511815951035	239.611808737247	0.0999927862121694	stim08_sf2_pattern1_cont1_shape1.png	2	1	1	1	1	1	0	0	0	0	0	0	0	0	0	0	0	0	1	9
114.86279296875	0.0999965983755828	235239	15	9	stim09_sf2_pattern1_cont1_shape2.png	0	15	0	240.011798649673	240.111795248049	0.0999965983755828	stim09_sf2_pattern1_cont1_shape2.png	2	1	1	2	1	1	0	0	0	0	0	0	0	0	0	0	0	0	1	9
115.36279296875	0.0999942524285871	236263	16	8	stim08_sf2_pattern1_cont1_shape1.png	0	16	0	240.511771378033	240.611765630461	0.0999942524285871	stim08_sf2_pattern1_cont1_shape1.png	2	1	1	1	1	1	0	0	0	0	0	0	0	0	0	0	0	0	1	9
115.86279296875	0.0999977713508997	237287	17	3	stim03_sf1_pattern1_cont2_shape2.png	0	17	0	241.011770498302	241.111768269653	0.0999977713508997	stim03_sf1_pattern1_cont2_shape2.png	1	1	2	2	1	4	0	0	0	0	0	0	0	0	0	0	0	0	1	9
116.36279296875	0.100037359214184	238311	18	4	stim04_sf1_pattern2_cont1_shape1.png	0	18	0	241.511717421241	241.611754780455	0.100037359214184	stim04_sf1_pattern2_cont1_shape1.png	1	2	1	1	1	3	0	0	0	0	0	0	0	0	0	0	0	0	1	9
116.86279296875	0.099997478106161	239335	19	11	stim11_sf2_pattern1_cont2_shape2.png	0	19	0	242.011744986125	242.111742464231	0.099997478106161	stim11_sf2_pattern1_cont2_shape2.png	2	1	2	2	1	1	0	0	0	0	0	0	0	0	0	0	0	0	1	9
117.36279296875	0.100000117296076	240359	20	1	stim01_sf1_pattern1_cont1_shape2.png	0	20	0	242.511710969886	242.611711087182	0.100000117296076	stim01_sf1_pattern1_cont1_shape2.png	1	1	1	2	1	4	0	0	0	0	0	0	0	0	0	0	0	0	1	9
117.86279296875	0.0999763645777421	241383	21	13	stim13_sf2_pattern2_cont1_shape2.png	0	21	0	243.011719180702	243.11169554528	0.0999763645777421	stim13_sf2_pattern2_cont1_shape2.png	2	2	1	2	1	2	0	0	0	0	0	0	0	0	0	0	0	0	1	9
118.36279296875	0.0999971848632413	242407	22	14	stim14_sf2_pattern2_cont2_shape1.png	0	22	0	243.511684577976	243.611681762839	0.0999971848632413	stim14_sf2_pattern2_cont2_shape1.png	2	2	2	1	1	2	0	0	0	0	0	0	0	0	0	0	0	0	1	9
118.86279296875	0.0999939591838483	243431	23	9	stim09_sf2_pattern1_cont1_shape2.png	0	23	0	244.011675780674	244.111669739857	0.0999939591838483	stim09_sf2_pattern1_cont1_shape2.png	2	1	1	2	1	1	0	0	0	0	0	0	0	0	0	0	0	0	1	9
119.36279296875	0.100022110555074	244455	24	6	stim06_sf1_pattern2_cont2_shape1.png	0	24	0	244.51163120767	244.611653318225	0.100022110555074	stim06_sf1_pattern2_cont2_shape1.png	1	2	2	1	1	3	0	0	0	0	0	0	0	0	0	0	0	0	1	9
119.86279296875	0.0999886808040173	245479	25	12	stim12_sf2_pattern2_cont1_shape1.png	0	25	0	245.0116678631	245.111656543904	0.0999886808040173	stim12_sf2_pattern2_cont1_shape1.png	2	2	1	1	1	2	0	0	0	0	0	0	0	0	0	0	0	0	1	9
120.36279296875	0.100006861895963	246503	26	7	stim07_sf1_pattern2_cont2_shape2.png	0	26	0	245.51162856848	245.611635430376	0.100006861895963	stim07_sf1_pattern2_cont2_shape2.png	1	2	2	2	1	3	0	0	0	0	0	0	0	0	0	0	0	0	1	9
120.86279296875	0.0999933726980089	247527	27	5	stim05_sf1_pattern2_cont1_shape2.png	0	27	0	246.011613026578	246.111606399276	0.0999933726980089	stim05_sf1_pattern2_cont1_shape2.png	1	2	1	2	1	3	0	0	0	0	0	0	0	0	0	0	0	0	1	9
121.36279296875	0.0999960118897434	248551	28	0	stim00_sf1_pattern1_cont1_shape1.png	0	28	0	246.511589273859	246.611585285749	0.0999960118897434	stim00_sf1_pattern1_cont1_shape1.png	1	1	1	1	1	4	0	0	0	0	0	0	0	0	0	0	0	0	1	9
121.86279296875	0.0999822294488695	249575	29	10	stim10_sf2_pattern1_cont2_shape1.png	0	29	0	247.011595138727	247.111577368176	0.0999822294488695	stim10_sf2_pattern1_cont2_shape1.png	2	1	2	1	1	1	0	0	0	0	0	0	0	0	0	0	0	0	1	9
122.36279296875	0.100016832173424	250599	30	15	stim15_sf2_pattern2_cont2_shape2.png	0	30	0	247.511536490041	247.611553322215	0.100016832173424	stim15_sf2_pattern2_cont2_shape2.png	2	2	2	2	1	2	0	0	0	0	0	0	0	0	0	0	0	0	1	9
122.86279296875	0.10000304973255	251623	31	2	stim02_sf1_pattern1_cont2_shape1.png	0	31	0	248.011550565725	248.111553615458	0.10000304973255	stim02_sf1_pattern1_cont2_shape1.png	1	1	2	1	1	4	0	0	0	0	0	0	0	0	0	0	0	0	1	9
123.36279296875	0.100002756487811	252647	32	3	stim03_sf1_pattern1_cont2_shape2.png	0	32	0	248.511534437337	248.611537193825	0.100002756487811	stim03_sf1_pattern1_cont2_shape2.png	1	1	2	2	1	4	0	0	0	0	0	0	0	0	0	0	0	0	1	9
123.86279296875	0.0999960118897434	253671	33	0	stim00_sf1_pattern1_cont1_shape1.png	0	33	0	249.011540302205	249.111536314094	0.0999960118897434	stim00_sf1_pattern1_cont1_shape1.png	1	1	1	1	1	4	0	0	0	0	0	0	0	0	0	0	0	0	1	9
124.36279296875	0.0999696199796745	254695	34	8	stim08_sf2_pattern1_cont1_shape1.png	0	34	0	249.51153473058	249.61150435056	0.0999696199796745	stim08_sf2_pattern1_cont1_shape1.png	2	1	1	1	1	1	0	0	0	0	0	0	0	0	0	0	0	0	1	9
124.86279296875	0.100020351093917	255719	35	9	stim09_sf2_pattern1_cont1_shape2.png	0	35	0	250.011496608933	250.111516960027	0.100020351093917	stim09_sf2_pattern1_cont1_shape2.png	2	1	1	2	1	1	0	0	0	0	0	0	0	0	0	0	0	0	1	9
125.36279296875	0.100000117297895	256743	36	12	stim12_sf2_pattern2_cont1_shape1.png	0	36	0	250.511497488664	250.611497605962	0.100000117297895	stim12_sf2_pattern2_cont1_shape1.png	2	2	1	1	1	2	0	0	0	0	0	0	0	0	0	0	0	0	1	9
125.86279296875	0.100003636218389	257767	37	5	stim05_sf1_pattern2_cont1_shape2.png	0	37	0	251.011481653519	251.111485289737	0.100003636218389	stim05_sf1_pattern2_cont1_shape2.png	1	2	1	2	1	3	0	0	0	0	0	0	0	0	0	0	0	0	1	9
126.36279296875	0.0999992375673173	258791	38	10	stim10_sf2_pattern1_cont2_shape1.png	0	38	0	251.511466698103	251.61146593567	0.0999992375673173	stim10_sf2_pattern1_cont2_shape1.png	2	1	2	1	1	1	0	0	0	0	0	0	0	0	0	0	0	0	1	9
126.86279296875	0.0999898537775152	259815	39	4	stim04_sf1_pattern2_cont1_shape1.png	0	39	0	252.011471683241	252.111461537019	0.0999898537775152	stim04_sf1_pattern2_cont1_shape1.png	1	2	1	1	1	3	0	0	0	0	0	0	0	0	0	0	0	0	1	9
127.3623046875	0.100026509206145	260838	40	7	stim07_sf1_pattern2_cont2_shape2.png	0	40	0	252.511395146705	252.611421655911	0.100026509206145	stim07_sf1_pattern2_cont2_shape2.png	1	2	2	2	1	3	0	0	0	0	0	0	0	0	0	0	0	0	1	9
127.8623046875	0.0999936659427476	261862	41	14	stim14_sf2_pattern2_cont2_shape1.png	0	41	0	253.011426816995	253.111420482937	0.0999936659427476	stim14_sf2_pattern2_cont2_shape1.png	2	2	2	1	1	2	0	0	0	0	0	0	0	0	0	0	0	0	1	9
128.3623046875	0.10001302001001	262886	42	2	stim02_sf1_pattern1_cont2_shape1.png	0	42	0	253.511396906164	253.611409926174	0.10001302001001	stim02_sf1_pattern1_cont2_shape1.png	1	1	2	1	1	4	0	0	0	0	0	0	0	0	0	0	0	0	1	9
128.8623046875	0.0999948389144265	263910	43	11	stim11_sf2_pattern1_cont2_shape2.png	0	43	0	254.011406583199	254.111401422113	0.0999948389144265	stim11_sf2_pattern1_cont2_shape2.png	2	1	2	2	1	1	0	0	0	0	0	0	0	0	0	0	0	0	1	9
129.3623046875	0.100032667318374	264934	44	1	stim01_sf1_pattern1_cont1_shape2.png	0	44	0	254.51134705478	254.611379722099	0.100032667318374	stim01_sf1_pattern1_cont1_shape2.png	1	1	1	2	1	4	0	0	0	0	0	0	0	0	0	0	0	0	1	9
129.8623046875	0.100010674061195	265958	45	13	stim13_sf2_pattern2_cont1_shape2.png	0	45	0	255.011371687229	255.11138236129	0.100010674061195	stim13_sf2_pattern2_cont1_shape2.png	2	2	1	2	1	2	0	0	0	0	0	0	0	0	0	0	0	0	1	9
130.3623046875	0.100001583516132	266982	46	6	stim06_sf1_pattern2_cont2_shape1.png	0	46	0	255.511356731813	255.611358315329	0.100001583516132	stim06_sf1_pattern2_cont2_shape1.png	1	2	2	1	1	3	0	0	0	0	0	0	0	0	0	0	0	0	1	9
130.8623046875	0.0999945456715068	268006	47	10	stim10_sf2_pattern1_cont2_shape1.png	0	47	1	256.011360543978	256.11135508965	0.0999945456715068	stim10_sf2_pattern1_cont2_shape1.png	2	1	2	1	1	1	0	0	0	0	0	0	0	0	0	0	0	0	1	9
131.3623046875	0.100001290269574	269030	48	10	stim10_sf2_pattern1_cont2_shape1.png	0	48	1	256.511327993958	256.611329284227	0.100001290269574	stim10_sf2_pattern1_cont2_shape1.png	2	1	2	1	1	1	0	0	0	0	0	0	0	0	0	0	0	0	1	9
131.8623046875	0.0999957186450047	270054	49	0	stim00_sf1_pattern1_cont1_shape1.png	0	49	2	257.011322715576	257.111318434221	0.0999957186450047	stim00_sf1_pattern1_cont1_shape1.png	1	1	1	1	1	4	0	0	0	0	0	0	0	0	0	0	0	0	1	9
132.3623046875	0.0999889740469371	271078	50	12	stim12_sf2_pattern2_cont1_shape1.png	0	50	2	257.511315091246	257.611304065293	0.0999889740469371	stim12_sf2_pattern2_cont1_shape1.png	2	2	1	1	1	2	0	0	0	0	0	0	0	0	0	0	0	0	1	9
132.8623046875	0.0999663943021005	272102	51	15	stim15_sf2_pattern2_cont2_shape2.png	0	51	0	258.011297203397	258.111263597699	0.0999663943021005	stim15_sf2_pattern2_cont2_shape2.png	2	2	2	2	1	2	0	0	0	0	0	0	0	0	0	0	0	0	1	9
133.3623046875	0.100006861895963	273126	52	13	stim13_sf2_pattern2_cont1_shape2.png	0	52	0	258.511273743921	258.611280605817	0.100006861895963	stim13_sf2_pattern2_cont1_shape2.png	2	2	1	2	1	2	0	0	0	0	0	0	0	0	0	0	0	0	1	9
133.8623046875	0.100003636218389	274150	53	1	stim01_sf1_pattern1_cont1_shape2.png	0	53	0	259.011263480401	259.111267116619	0.100003636218389	stim01_sf1_pattern1_cont1_shape2.png	1	1	1	2	1	4	0	0	0	0	0	0	0	0	0	0	0	0	1	9
134.3623046875	0.100004222706048	275174	54	2	stim02_sf1_pattern1_cont2_shape1.png	0	54	0	259.511247352011	259.611251574717	0.100004222706048	stim02_sf1_pattern1_cont2_shape1.png	1	1	2	1	1	4	0	0	0	0	0	0	0	0	0	0	0	0	1	9
134.8623046875	0.100016538930504	276198	55	15	stim15_sf2_pattern2_cont2_shape2.png	0	55	0	260.011233862813	260.111250401744	0.100016538930504	stim15_sf2_pattern2_cont2_shape2.png	2	2	2	2	1	2	0	0	0	0	0	0	0	0	0	0	0	0	1	9
135.3623046875	0.0999619956492097	277222	56	9	stim09_sf2_pattern1_cont1_shape2.png	0	56	0	260.511216561452	260.611178557101	0.0999619956492097	stim09_sf2_pattern1_cont1_shape2.png	2	1	1	2	1	1	0	0	0	0	0	0	0	0	0	0	0	0	1	9
135.8623046875	0.0999866280999413	278246	57	11	stim11_sf2_pattern1_cont2_shape2.png	0	57	0	261.01121392226	261.11120055036	0.0999866280999413	stim11_sf2_pattern1_cont2_shape2.png	2	1	2	2	1	1	0	0	0	0	0	0	0	0	0	0	0	0	1	9
136.3623046875	0.099986921342861	279270	58	12	stim12_sf2_pattern2_cont1_shape1.png	0	58	0	261.511162311415	261.611149232758	0.099986921342861	stim12_sf2_pattern2_cont1_shape1.png	2	2	1	1	1	2	0	0	0	0	0	0	0	0	0	0	0	0	1	9
136.8623046875	0.0999798835000547	280294	59	0	stim00_sf1_pattern1_cont1_shape1.png	0	59	0	262.011142370862	262.111122254362	0.0999798835000547	stim00_sf1_pattern1_cont1_shape1.png	1	1	1	1	1	4	0	0	0	0	0	0	0	0	0	0	0	0	1	9
137.3623046875	0.100019471365158	281318	60	14	stim14_sf2_pattern2_cont2_shape1.png	0	60	0	262.511130347881	262.611149819246	0.100019471365158	stim14_sf2_pattern2_cont2_shape1.png	2	2	2	1	1	2	0	0	0	0	0	0	0	0	0	0	0	0	1	9
137.8623046875	0.100017418659263	282342	61	6	stim06_sf1_pattern2_cont2_shape1.png	0	61	0	263.011112460032	263.111129878691	0.100017418659263	stim06_sf1_pattern2_cont2_shape1.png	1	2	2	1	1	3	0	0	0	0	0	0	0	0	0	0	0	0	1	9
138.3623046875	0.100021817310335	283366	62	3	stim03_sf1_pattern1_cont2_shape2.png	0	62	0	263.511099850564	263.611121667875	0.100021817310335	stim03_sf1_pattern1_cont2_shape2.png	1	1	2	2	1	4	0	0	0	0	0	0	0	0	0	0	0	0	1	9
138.8623046875	0.0999836956652871	284390	63	4	stim04_sf1_pattern2_cont1_shape1.png	0	63	0	264.011128001934	264.111111697599	0.0999836956652871	stim04_sf1_pattern2_cont1_shape1.png	1	2	1	1	1	3	0	0	0	0	0	0	0	0	0	0	0	0	1	9
139.3623046875	0.0999778307959787	285414	64	7	stim07_sf1_pattern2_cont2_shape2.png	0	64	0	264.511116858683	264.611094689479	0.0999778307959787	stim07_sf1_pattern2_cont2_shape2.png	1	2	2	2	1	3	0	0	0	0	0	0	0	0	0	0	0	0	1	9
139.8623046875	0.100008914600039	286438	65	10	stim10_sf2_pattern1_cont2_shape1.png	0	65	0	265.011090760017	265.111099674617	0.100008914600039	stim10_sf2_pattern1_cont2_shape1.png	2	1	2	1	1	1	0	0	0	0	0	0	0	0	0	0	0	0	1	9
140.3623046875	0.100011847034693	287462	66	8	stim08_sf2_pattern1_cont1_shape1.png	0	66	0	265.511081669471	265.611093516505	0.100011847034693	stim08_sf2_pattern1_cont1_shape1.png	2	1	1	1	1	1	0	0	0	0	0	0	0	0	0	0	0	0	1	9
140.8623046875	0.100066097071249	288486	67	5	stim05_sf1_pattern2_cont1_shape2.png	0	67	0	266.011028299165	266.111094396236	0.100066097071249	stim05_sf1_pattern2_cont1_shape2.png	1	2	1	2	1	3	0	0	0	0	0	0	0	0	0	0	0	0	1	9
141.3623046875	0.0999476267224964	289510	68	11	stim11_sf2_pattern1_cont2_shape2.png	0	68	0	266.511104835701	266.611052462424	0.0999476267224964	stim11_sf2_pattern1_cont2_shape2.png	2	1	2	2	1	1	0	0	0	0	0	0	0	0	0	0	0	0	1	9
141.8623046875	0.0999942524285871	290534	69	13	stim13_sf2_pattern2_cont1_shape2.png	0	69	0	267.01106114243	267.111055394858	0.0999942524285871	stim13_sf2_pattern2_cont1_shape2.png	2	2	1	2	1	2	0	0	0	0	0	0	0	0	0	0	0	0	1	9
142.3623046875	0.0999960118897434	291558	70	8	stim08_sf2_pattern1_cont1_shape1.png	0	70	0	267.511028005922	267.611024017811	0.0999960118897434	stim08_sf2_pattern1_cont1_shape1.png	2	1	1	1	1	1	0	0	0	0	0	0	0	0	0	0	0	0	1	9
142.8623046875	0.0999825226917892	292582	71	0	stim00_sf1_pattern1_cont1_shape1.png	0	71	0	268.011034457277	268.111016979969	0.0999825226917892	stim00_sf1_pattern1_cont1_shape1.png	1	1	1	1	1	4	0	0	0	0	0	0	0	0	0	0	0	0	1	9
143.3623046875	0.099992199724511	293606	72	3	stim03_sf1_pattern1_cont2_shape2.png	0	72	0	268.511005426177	268.610997625901	0.099992199724511	stim03_sf1_pattern1_cont2_shape2.png	1	1	2	2	1	4	0	0	0	0	0	0	0	0	0	0	0	0	1	9
143.8623046875	0.100020351095736	294630	73	6	stim06_sf1_pattern2_cont2_shape1.png	0	73	0	269.010962319391	269.110982670487	0.100020351095736	stim06_sf1_pattern2_cont2_shape1.png	1	2	2	1	1	3	0	0	0	0	0	0	0	0	0	0	0	0	1	9
144.36181640625	0.0999655145715224	295653	74	1	stim01_sf1_pattern1_cont1_shape2.png	0	74	0	269.510982259946	269.610947774518	0.0999655145715224	stim01_sf1_pattern1_cont1_shape2.png	1	1	1	2	1	4	0	0	0	0	0	0	0	0	0	0	0	0	1	9
144.86181640625	0.0999913199939328	296677	75	14	stim14_sf2_pattern2_cont2_shape1.png	0	75	0	270.010962612636	270.11095393263	0.0999913199939328	stim14_sf2_pattern2_cont2_shape1.png	2	2	2	1	1	2	0	0	0	0	0	0	0	0	0	0	0	0	1	9
145.36181640625	0.0999933726980089	297701	76	12	stim12_sf2_pattern2_cont1_shape1.png	0	76	0	270.510949709924	270.610943082622	0.0999933726980089	stim12_sf2_pattern2_cont1_shape1.png	2	2	1	1	1	2	0	0	0	0	0	0	0	0	0	0	0	0	1	9
145.86181640625	0.0999913199939328	298725	77	2	stim02_sf1_pattern1_cont2_shape1.png	0	77	0	271.010934754509	271.110926074503	0.0999913199939328	stim02_sf1_pattern1_cont2_shape1.png	1	1	2	1	1	4	0	0	0	0	0	0	0	0	0	0	0	0	1	9
146.36181640625	0.100006861895963	299749	78	4	stim04_sf1_pattern2_cont1_shape1.png	0	78	0	271.510925077475	271.610931939371	0.100006861895963	stim04_sf1_pattern2_cont1_shape1.png	1	2	1	1	1	3	0	0	0	0	0	0	0	0	0	0	0	0	1	9
146.86181640625	0.0999731389019871	300773	79	15	stim15_sf2_pattern2_cont2_shape2.png	0	79	0	272.010927130179	272.110900269081	0.0999731389019871	stim15_sf2_pattern2_cont2_shape2.png	2	2	2	2	1	2	0	0	0	0	0	0	0	0	0	0	0	0	1	9
147.36181640625	0.0999986510796589	301797	80	5	stim05_sf1_pattern2_cont1_shape2.png	0	80	0	272.510892527454	272.610891178534	0.0999986510796589	stim05_sf1_pattern2_cont1_shape2.png	1	2	1	2	1	3	0	0	0	0	0	0	0	0	0	0	0	0	1	9
147.86181640625	0.0999998240549758	302821	81	10	stim10_sf2_pattern1_cont2_shape1.png	0	81	0	273.010881970689	273.110881794744	0.0999998240549758	stim10_sf2_pattern1_cont2_shape1.png	2	1	2	1	1	1	0	0	0	0	0	0	0	0	0	0	0	0	1	9
148.36181640625	0.0999986510796589	303845	82	7	stim07_sf1_pattern2_cont2_shape2.png	0	82	0	273.510865255814	273.610863906893	0.0999986510796589	stim07_sf1_pattern2_cont2_shape2.png	1	2	2	2	1	3	0	0	0	0	0	0	0	0	0	0	0	0	1	9
148.86181640625	0.0999798835000547	304869	83	9	stim09_sf2_pattern1_cont1_shape2.png	0	83	0	274.010855285538	274.110835169038	0.0999798835000547	stim09_sf2_pattern1_cont1_shape2.png	2	1	1	2	1	1	0	0	0	0	0	0	0	0	0	0	0	0	1	9
149.36181640625	0.0999977713490807	305893	84	13	stim13_sf2_pattern2_cont1_shape2.png	0	84	0	274.510837984175	274.610835755524	0.0999977713490807	stim13_sf2_pattern2_cont1_shape2.png	2	2	1	2	1	2	0	0	0	0	0	0	0	0	0	0	0	0	1	9
149.86181640625	0.0999681537632569	306917	85	3	stim03_sf1_pattern1_cont2_shape2.png	0	85	0	275.010840330122	275.110808483885	0.0999681537632569	stim03_sf1_pattern1_cont2_shape2.png	1	1	2	2	1	4	0	0	0	0	0	0	0	0	0	0	0	0	1	9
150.36181640625	0.100024749746808	307941	86	2	stim02_sf1_pattern1_cont2_shape1.png	0	86	0	275.51077962873	275.610804378477	0.100024749746808	stim02_sf1_pattern1_cont2_shape1.png	1	1	2	1	1	4	0	0	0	0	0	0	0	0	0	0	0	0	1	9
150.86181640625	0.100006568653043	308965	87	11	stim11_sf2_pattern1_cont2_shape2.png	0	87	0	276.010813644969	276.110820213622	0.100006568653043	stim11_sf2_pattern1_cont2_shape2.png	2	1	2	2	1	1	0	0	0	0	0	0	0	0	0	0	0	0	1	9
151.36181640625	0.0999983578367392	309989	88	9	stim09_sf2_pattern1_cont1_shape2.png	0	88	0	276.510783440895	276.610781798732	0.0999983578367392	stim09_sf2_pattern1_cont1_shape2.png	2	1	1	2	1	1	0	0	0	0	0	0	0	0	0	0	0	0	1	9
151.86181640625	0.0999663943021005	311013	89	12	stim12_sf2_pattern2_cont1_shape1.png	0	89	0	277.010797223336	277.110763617638	0.0999663943021005	stim12_sf2_pattern2_cont1_shape1.png	2	2	1	1	1	2	0	0	0	0	0	0	0	0	0	0	0	0	1	9
152.36181640625	0.100045276787569	312037	90	14	stim14_sf2_pattern2_cont2_shape1.png	0	90	0	277.51073095032	277.610776227108	0.100045276787569	stim14_sf2_pattern2_cont2_shape1.png	2	2	2	1	1	2	0	0	0	0	0	0	0	0	0	0	0	0	1	9
152.86181640625	0.0999529051041463	313061	91	6	stim06_sf1_pattern2_cont2_shape1.png	0	91	0	278.01075998142	278.110712886524	0.0999529051041463	stim06_sf1_pattern2_cont2_shape1.png	1	2	2	1	1	3	0	0	0	0	0	0	0	0	0	0	0	0	1	9
153.36181640625	0.0999968916203215	314085	92	5	stim05_sf1_pattern2_cont1_shape2.png	0	92	0	278.510717461122	278.610714352742	0.0999968916203215	stim05_sf1_pattern2_cont1_shape2.png	1	2	1	2	1	3	0	0	0	0	0	0	0	0	0	0	0	0	1	9
153.86181640625	0.0999968916203215	315109	93	4	stim04_sf1_pattern2_cont1_shape1.png	0	93	0	279.0107206868	279.11071757842	0.0999968916203215	stim04_sf1_pattern2_cont1_shape1.png	1	2	1	1	1	3	0	0	0	0	0	0	0	0	0	0	0	0	1	9
154.36181640625	0.0999895605327765	316133	94	7	stim07_sf1_pattern2_cont2_shape2.png	0	94	0	279.510696347596	279.610685908128	0.0999895605327765	stim07_sf1_pattern2_cont2_shape2.png	1	2	2	2	1	3	0	0	0	0	0	0	0	0	0	0	0	0	1	9
154.86181640625	0.100599800125565	317157	95	11	stim11_sf2_pattern1_cont2_shape2.png	0	95	1	280.010693708404	280.111293508529	0.100599800125565	stim11_sf2_pattern1_cont2_shape2.png	2	1	2	2	1	1	0	0	0	0	0	0	0	0	0	0	0	0	1	9
155.36181640625	0.100015072712267	318181	96	11	stim11_sf2_pattern1_cont2_shape2.png	0	96	1	280.510666730008	280.61068180272	0.100015072712267	stim11_sf2_pattern1_cont2_shape2.png	2	1	2	2	1	1	0	0	0	0	0	0	0	0	0	0	0	0	1	9
155.86181640625	0.0999948389162455	319205	97	10	stim10_sf2_pattern1_cont2_shape1.png	0	97	2	281.010676700284	281.1106715392	0.0999948389162455	stim10_sf2_pattern1_cont2_shape1.png	2	1	2	1	1	1	0	0	0	0	0	0	0	0	0	0	0	0	1	9
156.36181640625	0.099958476730535	320229	98	15	stim15_sf2_pattern2_cont2_shape2.png	0	98	2	281.510649721888	281.610608198618	0.099958476730535	stim15_sf2_pattern2_cont2_shape2.png	2	2	2	2	1	2	0	0	0	0	0	0	0	0	0	0	0	0	1	9
156.86181640625	0.100005395679545	321253	99	10	stim10_sf2_pattern1_cont2_shape1.png	0	99	0	282.01063623269	282.110641628369	0.100005395679545	stim10_sf2_pattern1_cont2_shape1.png	2	1	2	1	1	1	0	0	0	0	0	0	0	0	0	0	0	0	1	9
157.36181640625	0.0999963051326631	322277	100	0	stim00_sf1_pattern1_cont1_shape1.png	0	100	0	282.510650601618	282.610646906751	0.0999963051326631	stim00_sf1_pattern1_cont1_shape1.png	1	1	1	1	1	4	0	0	0	0	0	0	0	0	0	0	0	0	1	9
157.86181640625	0.0999963051326631	323301	101	8	stim08_sf2_pattern1_cont1_shape1.png	0	101	0	283.010609547537	283.110605852669	0.0999963051326631	stim08_sf2_pattern1_cont1_shape1.png	2	1	1	1	1	1	0	0	0	0	0	0	0	0	0	0	0	0	1	9
158.36181640625	0.0999819362041308	324325	102	1	stim01_sf1_pattern1_cont1_shape2.png	0	102	0	283.510593419149	283.610575355353	0.0999819362041308	stim01_sf1_pattern1_cont1_shape2.png	1	1	1	2	1	4	0	0	0	0	0	0	0	0	0	0	0	0	1	9
158.86181640625	0.0999599429469527	325349	103	15	stim15_sf2_pattern2_cont2_shape2.png	0	103	0	284.010615705649	284.110575648596	0.0999599429469527	stim15_sf2_pattern2_cont2_shape2.png	2	2	2	2	1	2	0	0	0	0	0	0	0	0	0	0	0	0	1	9
159.36181640625	0.100001583514313	326373	104	7	stim07_sf1_pattern2_cont2_shape2.png	0	104	0	284.510568200212	284.610569783727	0.100001583514313	stim07_sf1_pattern2_cont2_shape2.png	1	2	2	2	1	3	0	0	0	0	0	0	0	0	0	0	0	0	1	9
159.86181640625	0.0999819362041308	327397	105	3	stim03_sf1_pattern1_cont2_shape2.png	0	105	0	285.010572012377	285.110553948582	0.0999819362041308	stim03_sf1_pattern1_cont2_shape2.png	1	1	2	2	1	4	0	0	0	0	0	0	0	0	0	0	0	0	1	9
160.36181640625	0.0999875078305195	328421	106	10	stim10_sf2_pattern1_cont2_shape1.png	0	106	0	285.510562921831	285.610550429661	0.0999875078305195	stim10_sf2_pattern1_cont2_shape1.png	2	1	2	1	1	1	0	0	0	0	0	0	0	0	0	0	0	0	1	9
160.86181640625	0.0999965983755828	329445	107	4	stim04_sf1_pattern2_cont1_shape1.png	0	107	0	286.010545913712	286.110542512088	0.0999965983755828	stim04_sf1_pattern2_cont1_shape1.png	1	2	1	1	1	3	0	0	0	0	0	0	0	0	0	0	0	0	1	9
161.361328125	0.0999493861818337	330468	108	6	stim06_sf1_pattern2_cont2_shape1.png	0	108	0	286.510512777204	286.610462163386	0.0999493861818337	stim06_sf1_pattern2_cont2_shape1.png	1	2	2	1	1	3	0	0	0	0	0	0	0	0	0	0	0	0	1	9
161.861328125	0.100001876757233	331492	109	15	stim15_sf2_pattern2_cont2_shape2.png	0	109	0	287.010500754222	287.11050263098	0.100001876757233	stim15_sf2_pattern2_cont2_shape2.png	2	2	2	2	1	2	0	0	0	0	0	0	0	0	0	0	0	0	1	9
162.361328125	0.100000117296076	332516	110	8	stim08_sf2_pattern1_cont1_shape1.png	0	110	0	287.510486092051	287.610486209347	0.100000117296076	stim08_sf2_pattern1_cont1_shape1.png	2	1	1	1	1	1	0	0	0	0	0	0	0	0	0	0	0	0	1	9
162.861328125	0.099997478106161	333540	111	14	stim14_sf2_pattern2_cont2_shape1.png	0	111	0	288.01049107719	288.110488555296	0.099997478106161	stim14_sf2_pattern2_cont2_shape1.png	2	2	2	1	1	2	0	0	0	0	0	0	0	0	0	0	0	0	1	9
163.361328125	0.099979590255316	334564	112	1	stim01_sf1_pattern1_cont1_shape2.png	0	112	0	288.510461166359	288.610440756614	0.099979590255316	stim01_sf1_pattern1_cont1_shape2.png	1	1	1	2	1	4	0	0	0	0	0	0	0	0	0	0	0	0	1	9
163.861328125	0.0999778307977977	335588	113	9	stim09_sf2_pattern1_cont1_shape2.png	0	113	0	289.010464098792	289.11044192959	0.0999778307977977	stim09_sf2_pattern1_cont1_shape2.png	2	1	1	2	1	1	0	0	0	0	0	0	0	0	0	0	0	0	1	9
164.361328125	0.0999992375673173	336612	114	5	stim05_sf1_pattern2_cont1_shape2.png	0	114	0	289.510434187961	289.610433425529	0.0999992375673173	stim05_sf1_pattern2_cont1_shape2.png	1	2	1	2	1	3	0	0	0	0	0	0	0	0	0	0	0	0	1	9
164.861328125	0.0999927862103505	337636	115	0	stim00_sf1_pattern1_cont1_shape1.png	0	115	0	290.010431255529	290.110424041739	0.0999927862103505	stim00_sf1_pattern1_cont1_shape1.png	1	1	1	1	1	4	0	0	0	0	0	0	0	0	0	0	0	0	1	9
165.361328125	0.100000117297895	338660	116	11	stim11_sf2_pattern1_cont2_shape2.png	0	116	0	290.510405743349	290.610405860647	0.100000117297895	stim11_sf2_pattern1_cont2_shape2.png	2	1	2	2	1	1	0	0	0	0	0	0	0	0	0	0	0	0	1	9
165.861328125	0.0999910267510131	339684	117	2	stim02_sf1_pattern1_cont2_shape1.png	0	117	0	291.010415420382	291.110406447133	0.0999910267510131	stim02_sf1_pattern1_cont2_shape1.png	1	1	2	1	1	4	0	0	0	0	0	0	0	0	0	0	0	0	1	9
166.361328125	0.100020937581576	340708	118	12	stim12_sf2_pattern2_cont1_shape1.png	0	118	0	291.510372606841	291.610393544423	0.100020937581576	stim12_sf2_pattern2_cont1_shape1.png	2	2	1	1	1	2	0	0	0	0	0	0	0	0	0	0	0	0	1	9
166.861328125	0.0999945456733258	341732	119	13	stim13_sf2_pattern2_cont1_shape2.png	0	119	0	292.010361756833	292.110356302506	0.0999945456733258	stim13_sf2_pattern2_cont1_shape2.png	2	2	1	2	1	2	0	0	0	0	0	0	0	0	0	0	0	0	1	9
167.361328125	0.0999968916203215	342756	120	5	stim05_sf1_pattern2_cont1_shape2.png	0	120	0	292.510335951411	292.610332843031	0.0999968916203215	stim05_sf1_pattern2_cont1_shape2.png	1	2	1	2	1	3	0	0	0	0	0	0	0	0	0	0	0	0	1	9
167.861328125	0.0999968916203215	343780	121	6	stim06_sf1_pattern2_cont2_shape1.png	0	121	0	293.010321582482	293.110318474102	0.0999968916203215	stim06_sf1_pattern2_cont2_shape1.png	1	2	2	1	1	3	0	0	0	0	0	0	0	0	0	0	0	0	1	9
168.361328125	0.099999530812056	344804	122	14	stim14_sf2_pattern2_cont2_shape1.png	0	122	0	293.510309266258	293.61030879707	0.099999530812056	stim14_sf2_pattern2_cont2_shape1.png	2	2	2	1	1	2	0	0	0	0	0	0	0	0	0	0	0	0	1	9
168.861328125	0.100001583514313	345828	123	15	stim15_sf2_pattern2_cont2_shape2.png	0	123	0	294.010308973015	294.110310556529	0.100001583514313	stim15_sf2_pattern2_cont2_shape2.png	2	2	2	2	1	2	0	0	0	0	0	0	0	0	0	0	0	0	1	9
169.361328125	0.0999986510796589	346852	124	13	stim13_sf2_pattern2_cont1_shape2.png	0	124	0	294.510286686515	294.610285337594	0.0999986510796589	stim13_sf2_pattern2_cont1_shape2.png	2	2	1	2	1	2	0	0	0	0	0	0	0	0	0	0	0	0	1	9
169.861328125	0.0999936659409286	347876	125	10	stim10_sf2_pattern1_cont2_shape1.png	0	125	0	295.010290205435	295.110283871376	0.0999936659409286	stim10_sf2_pattern1_cont2_shape1.png	2	1	2	1	1	1	0	0	0	0	0	0	0	0	0	0	0	0	1	9
170.361328125	0.10000334297365	348900	126	4	stim04_sf1_pattern2_cont1_shape1.png	0	126	0	295.510258828388	295.610262171362	0.10000334297365	stim04_sf1_pattern2_cont1_shape1.png	1	2	1	1	1	3	0	0	0	0	0	0	0	0	0	0	0	0	1	9
170.861328125	0.099999530810237	349924	127	0	stim00_sf1_pattern1_cont1_shape1.png	0	127	0	296.010279062184	296.110278592994	0.099999530810237	stim00_sf1_pattern1_cont1_shape1.png	1	1	1	1	1	4	0	0	0	0	0	0	0	0	0	0	0	0	1	9
171.361328125	0.100015365955187	350948	128	2	stim02_sf1_pattern1_cont2_shape1.png	0	128	0	296.510228037827	296.610243403782	0.100015365955187	stim02_sf1_pattern1_cont2_shape1.png	1	1	2	1	1	4	0	0	0	0	0	0	0	0	0	0	0	0	1	9
171.861328125	0.10000334297365	351972	129	3	stim03_sf1_pattern1_cont2_shape2.png	0	129	0	297.01023507567	297.110238418643	0.10000334297365	stim03_sf1_pattern1_cont2_shape2.png	1	1	2	2	1	4	0	0	0	0	0	0	0	0	0	0	0	0	1	9
172.361328125	0.100005688922465	352996	130	1	stim01_sf1_pattern1_cont1_shape2.png	0	130	0	297.510220120254	297.610225809176	0.100005688922465	stim01_sf1_pattern1_cont1_shape2.png	1	1	1	2	1	4	0	0	0	0	0	0	0	0	0	0	0	0	1	9
172.861328125	0.100000117297895	354020	131	12	stim12_sf2_pattern2_cont1_shape1.png	0	131	0	298.010205751325	298.110205868623	0.100000117297895	stim12_sf2_pattern2_cont1_shape1.png	2	2	1	1	1	2	0	0	0	0	0	0	0	0	0	0	0	0	1	9
173.361328125	0.100014486224609	355044	132	11	stim11_sf2_pattern1_cont2_shape2.png	0	132	0	298.510174374278	298.610188860503	0.100014486224609	stim11_sf2_pattern1_cont2_shape2.png	2	1	2	2	1	1	0	0	0	0	0	0	0	0	0	0	0	0	1	9
173.861328125	0.0999892672898568	356068	133	9	stim09_sf2_pattern1_cont1_shape2.png	0	133	0	299.010183464825	299.110172732115	0.0999892672898568	stim09_sf2_pattern1_cont1_shape2.png	2	1	1	2	1	1	0	0	0	0	0	0	0	0	0	0	0	0	1	9
174.361328125	0.0999825226899702	357092	134	8	stim08_sf2_pattern1_cont1_shape1.png	0	134	0	299.510162937784	299.610145460474	0.0999825226899702	stim08_sf2_pattern1_cont1_shape1.png	2	1	1	1	1	1	0	0	0	0	0	0	0	0	0	0	0	0	1	9
174.861328125	0.100016832173424	358116	135	7	stim07_sf1_pattern2_cont2_shape2.png	0	135	0	300.010164110758	300.110180942931	0.100016832173424	stim07_sf1_pattern2_cont2_shape2.png	1	2	2	2	1	3	0	0	0	0	0	0	0	0	0	0	0	0	1	9
175.361328125	0.0999942524285871	359140	136	8	stim08_sf2_pattern1_cont1_shape1.png	0	136	0	300.510140944525	300.610135196954	0.0999942524285871	stim08_sf2_pattern1_cont1_shape1.png	2	1	1	1	1	1	0	0	0	0	0	0	0	0	0	0	0	0	1	9
175.861328125	0.0999963051326631	360164	137	13	stim13_sf2_pattern2_cont1_shape2.png	0	137	0	301.010132440466	301.110128745599	0.0999963051326631	stim13_sf2_pattern2_cont1_shape2.png	2	2	1	2	1	2	0	0	0	0	0	0	0	0	0	0	0	0	1	9
176.361328125	0.100005395679545	361188	138	5	stim05_sf1_pattern2_cont1_shape2.png	0	138	0	301.510113672886	301.610119068566	0.100005395679545	stim05_sf1_pattern2_cont1_shape2.png	1	2	1	2	1	3	0	0	0	0	0	0	0	0	0	0	0	0	1	9
176.861328125	0.0999977713490807	362212	139	9	stim09_sf2_pattern1_cont1_shape2.png	0	139	0	302.010098130984	302.110095902333	0.0999977713490807	stim09_sf2_pattern1_cont1_shape2.png	2	1	1	2	1	1	0	0	0	0	0	0	0	0	0	0	0	0	1	9
177.361328125	0.0999904402633547	363236	140	1	stim01_sf1_pattern1_cont1_shape2.png	0	140	0	302.510092852603	302.610083292866	0.0999904402633547	stim01_sf1_pattern1_cont1_shape2.png	1	1	1	2	1	4	0	0	0	0	0	0	0	0	0	0	0	0	1	9
177.861328125	0.0999913199939328	364260	141	0	stim00_sf1_pattern1_cont1_shape1.png	0	141	0	303.010092266115	303.110083586109	0.0999913199939328	stim00_sf1_pattern1_cont1_shape1.png	1	1	1	1	1	4	0	0	0	0	0	0	0	0	0	0	0	0	1	9
178.361328125	0.0999834024223674	365284	142	3	stim03_sf1_pattern1_cont2_shape2.png	0	142	0	303.510071739074	303.610055141497	0.0999834024223674	stim03_sf1_pattern1_cont2_shape2.png	1	1	2	2	1	4	0	0	0	0	0	0	0	0	0	0	0	0	1	9
178.86083984375	0.0999927862121694	366307	143	6	stim06_sf1_pattern2_cont2_shape1.png	0	143	0	304.010063528258	304.11005631447	0.0999927862121694	stim06_sf1_pattern2_cont2_shape1.png	1	2	2	1	1	3	0	0	0	0	0	0	0	0	0	0	0	0	1	9
179.36083984375	0.100004515948967	367331	144	14	stim14_sf2_pattern2_cont2_shape1.png	0	144	0	304.510028632289	304.610033148238	0.100004515948967	stim14_sf2_pattern2_cont2_shape1.png	2	2	2	1	1	2	0	0	0	0	0	0	0	0	0	0	0	0	1	9
179.86083984375	0.100002170001972	368355	145	10	stim10_sf2_pattern1_cont2_shape1.png	0	145	0	305.010016902552	305.110019072554	0.100002170001972	stim10_sf2_pattern1_cont2_shape1.png	2	1	2	1	1	1	0	0	0	0	0	0	0	0	0	0	0	0	1	9
180.36083984375	0.0999924929674307	369379	146	11	stim11_sf2_pattern1_cont2_shape2.png	0	146	0	305.510006345788	305.609998838756	0.0999924929674307	stim11_sf2_pattern1_cont2_shape2.png	2	1	2	2	1	1	0	0	0	0	0	0	0	0	0	0	0	0	1	9
180.86083984375	0.0999992375673173	370403	147	12	stim12_sf2_pattern2_cont1_shape1.png	0	147	0	306.010004586327	306.110003823895	0.0999992375673173	stim12_sf2_pattern2_cont1_shape1.png	2	2	1	1	1	2	0	0	0	0	0	0	0	0	0	0	0	0	1	9
181.36083984375	0.099979590257135	371427	148	2	stim02_sf1_pattern1_cont2_shape1.png	0	148	0	306.509976434958	306.609956025215	0.099979590257135	stim02_sf1_pattern1_cont2_shape1.png	1	1	2	1	1	4	0	0	0	0	0	0	0	0	0	0	0	0	1	9
181.86083984375	0.0999883875610976	372451	149	4	stim04_sf1_pattern2_cont1_shape1.png	0	149	0	307.009969690358	307.109958077919	0.0999883875610976	stim04_sf1_pattern2_cont1_shape1.png	1	2	1	1	1	3	0	0	0	0	0	0	0	0	0	0	0	0	1	9
182.36083984375	0.0999933726980089	373475	150	7	stim07_sf1_pattern2_cont2_shape2.png	0	150	0	307.509911334915	307.609904707613	0.0999933726980089	stim07_sf1_pattern2_cont2_shape2.png	1	2	2	2	1	3	0	0	0	0	0	0	0	0	0	0	0	0	1	9
182.86083984375	0.0999737253878266	374499	151	15	stim15_sf2_pattern2_cont2_shape2.png	0	151	0	308.009933034929	308.109906760317	0.0999737253878266	stim15_sf2_pattern2_cont2_shape2.png	2	2	2	2	1	2	0	0	0	0	0	0	0	0	0	0	0	0	1	9
183.36083984375	0.0999658078162611	375523	152	8	stim08_sf2_pattern1_cont1_shape1.png	0	152	0	308.509912801132	308.609878608948	0.0999658078162611	stim08_sf2_pattern1_cont1_shape1.png	2	1	1	1	1	1	0	0	0	0	0	0	0	0	0	0	0	0	1	9
183.86083984375	0.0999746051184047	376547	153	14	stim14_sf2_pattern2_cont2_shape1.png	0	153	0	309.009903710585	309.109878315703	0.0999746051184047	stim14_sf2_pattern2_cont2_shape1.png	2	2	2	1	1	2	0	0	0	0	0	0	0	0	0	0	0	0	1	9
184.36083984375	0.099979590257135	377571	154	9	stim09_sf2_pattern1_cont1_shape2.png	0	154	0	309.509900191664	309.609879781921	0.099979590257135	stim09_sf2_pattern1_cont1_shape2.png	2	1	1	2	1	1	0	0	0	0	0	0	0	0	0	0	0	0	1	9
184.86083984375	0.100005102436626	378595	155	6	stim06_sf1_pattern2_cont2_shape1.png	0	155	0	310.009876732189	310.109881834625	0.100005102436626	stim06_sf1_pattern2_cont2_shape1.png	1	2	2	1	1	3	0	0	0	0	0	0	0	0	0	0	0	0	1	9
185.36083984375	0.0999787105265568	379619	156	7	stim07_sf1_pattern2_cont2_shape2.png	0	156	0	310.509874386242	310.609853096768	0.0999787105265568	stim07_sf1_pattern2_cont2_shape2.png	1	2	2	2	1	3	0	0	0	0	0	0	0	0	0	0	0	0	1	9
185.86083984375	0.100014779469348	380643	157	1	stim01_sf1_pattern1_cont1_shape2.png	0	157	0	311.009842129464	311.109856908934	0.100014779469348	stim01_sf1_pattern1_cont1_shape2.png	1	1	1	2	1	4	0	0	0	0	0	0	0	0	0	0	0	0	1	9
186.36083984375	0.100024749744989	381667	158	11	stim11_sf2_pattern1_cont2_shape2.png	0	158	0	311.509835091621	311.609859841366	0.100024749744989	stim11_sf2_pattern1_cont2_shape2.png	2	1	2	2	1	1	0	0	0	0	0	0	0	0	0	0	0	0	1	9
186.86083984375	0.10002357677331	382691	159	3	stim03_sf1_pattern1_cont2_shape2.png	0	159	0	312.009825121344	312.109848698117	0.10002357677331	stim03_sf1_pattern1_cont2_shape2.png	1	1	2	2	1	4	0	0	0	0	0	0	0	0	0	0	0	0	1	9
187.36083984375	0.0999461605060787	383715	160	4	stim04_sf1_pattern2_cont1_shape1.png	0	160	0	312.50982394837	312.609770108877	0.0999461605060787	stim04_sf1_pattern2_cont1_shape1.png	1	2	1	1	1	3	0	0	0	0	0	0	0	0	0	0	0	0	1	9
187.86083984375	0.0999608226775308	384739	161	2	stim02_sf1_pattern1_cont2_shape1.png	0	161	0	313.009822188909	313.109783011587	0.0999608226775308	stim02_sf1_pattern1_cont2_shape1.png	1	1	2	1	1	4	0	0	0	0	0	0	0	0	0	0	0	0	1	9
188.36083984375	0.100014486224609	385763	162	12	stim12_sf2_pattern2_cont1_shape1.png	0	162	0	313.50979139835	313.609805884575	0.100014486224609	stim12_sf2_pattern2_cont1_shape1.png	2	2	1	1	1	2	0	0	0	0	0	0	0	0	0	0	0	0	1	9
188.86083984375	0.0999880943163589	386787	163	15	stim15_sf2_pattern2_cont2_shape2.png	0	163	0	314.009794624028	314.109782718344	0.0999880943163589	stim15_sf2_pattern2_cont2_shape2.png	2	2	2	2	1	2	0	0	0	0	0	0	0	0	0	0	0	0	1	9
189.36083984375	0.0999954254020849	387811	164	13	stim13_sf2_pattern2_cont1_shape2.png	0	164	0	314.509762953736	314.609758379138	0.0999954254020849	stim13_sf2_pattern2_cont1_shape2.png	2	2	1	2	1	2	0	0	0	0	0	0	0	0	0	0	0	0	1	9
189.86083984375	0.0999878010734392	388835	165	0	stim00_sf1_pattern1_cont1_shape1.png	0	165	0	315.009773217256	315.10976101833	0.0999878010734392	stim00_sf1_pattern1_cont1_shape1.png	1	1	1	1	1	4	0	0	0	0	0	0	0	0	0	0	0	0	1	9
190.36083984375	0.100012140277613	389859	166	10	stim10_sf2_pattern1_cont2_shape1.png	0	166	0	315.509718380734	315.609730521011	0.100012140277613	stim10_sf2_pattern1_cont2_shape1.png	2	1	2	1	1	1	0	0	0	0	0	0	0	0	0	0	0	0	1	9
190.86083984375	0.0999927862103505	390883	167	5	stim05_sf1_pattern2_cont1_shape2.png	0	167	0	316.009742133452	316.109734919663	0.0999927862103505	stim05_sf1_pattern2_cont1_shape2.png	1	2	1	2	1	3	0	0	0	0	0	0	0	0	0	0	0	0	1	9
211.943359375	0.100028561910221	434060	168	5	stim05_sf1_pattern2_cont1_shape2.png	1	0	0	337.092476956932	337.192505518842	0.100028561910221	stim05_sf1_pattern2_cont1_shape2.png	1	2	1	2	1	3	0	0	0	0	0	0	0	0	0	0	0	0	1	9
212.443359375	0.0999989443225786	435084	169	1	stim01_sf1_pattern1_cont1_shape2.png	1	1	0	337.592481355583	337.692480299906	0.0999989443225786	stim01_sf1_pattern1_cont1_shape2.png	1	1	1	2	1	4	0	0	0	0	0	0	0	0	0	0	0	0	1	9
212.943359375	0.100038532187682	436108	170	7	stim07_sf1_pattern2_cont2_shape2.png	1	2	0	338.092439128528	338.192477660716	0.100038532187682	stim07_sf1_pattern2_cont2_shape2.png	1	2	2	2	1	3	0	0	0	0	0	0	0	0	0	0	0	0	1	9
213.443359375	0.100003342975469	437132	171	15	stim15_sf2_pattern2_cont2_shape2.png	1	3	0	338.592454963673	338.692458306648	0.100003342975469	stim15_sf2_pattern2_cont2_shape2.png	2	2	2	2	1	2	0	0	0	0	0	0	0	0	0	0	0	0	1	9
213.943359375	0.0999904402633547	438156	172	3	stim03_sf1_pattern1_cont2_shape2.png	1	4	0	339.092442354206	339.192432794469	0.0999904402633547	stim03_sf1_pattern1_cont2_shape2.png	1	1	2	2	1	4	0	0	0	0	0	0	0	0	0	0	0	0	1	9
214.443359375	0.0999989443225786	439180	173	11	stim11_sf2_pattern1_cont2_shape2.png	1	5	0	339.59240599202	339.692404936342	0.0999989443225786	stim11_sf2_pattern1_cont2_shape2.png	2	1	2	2	1	1	0	0	0	0	0	0	0	0	0	0	0	0	1	9
214.943359375	0.0999781240407174	440204	174	9	stim09_sf2_pattern1_cont1_shape2.png	1	6	0	340.092433263659	340.192411387699	0.0999781240407174	stim09_sf2_pattern1_cont1_shape2.png	2	1	1	2	1	1	0	0	0	0	0	0	0	0	0	0	0	0	1	9
215.443359375	0.099986921342861	441228	175	8	stim08_sf2_pattern1_cont1_shape1.png	1	7	0	340.592418015	340.692404936342	0.099986921342861	stim08_sf2_pattern1_cont1_shape1.png	2	1	1	1	1	1	0	0	0	0	0	0	0	0	0	0	0	0	1	9
215.943359375	0.100000117297895	442252	176	2	stim02_sf1_pattern1_cont2_shape1.png	1	8	0	341.092406285263	341.192406402561	0.100000117297895	stim02_sf1_pattern1_cont2_shape1.png	1	1	2	1	1	4	0	0	0	0	0	0	0	0	0	0	0	0	1	9
216.443359375	0.0999854551264434	443276	177	4	stim04_sf1_pattern2_cont1_shape1.png	1	9	0	341.5923599528	341.692345407926	0.0999854551264434	stim04_sf1_pattern2_cont1_shape1.png	1	2	1	1	1	3	0	0	0	0	0	0	0	0	0	0	0	0	1	9
216.943359375	0.100022697040913	444300	178	0	stim00_sf1_pattern1_cont1_shape1.png	1	10	0	342.092330628457	342.192353325498	0.100022697040913	stim00_sf1_pattern1_cont1_shape1.png	1	1	1	1	1	4	0	0	0	0	0	0	0	0	0	0	0	0	1	9
217.443359375	0.100020351093917	445324	179	6	stim06_sf1_pattern2_cont2_shape1.png	1	11	0	342.592306289251	342.692326640345	0.100020351093917	stim06_sf1_pattern2_cont2_shape1.png	1	2	2	1	1	3	0	0	0	0	0	0	0	0	0	0	0	0	1	9
217.943359375	0.100003342975469	446348	180	12	stim12_sf2_pattern2_cont1_shape1.png	1	12	0	343.092305996008	343.192309338983	0.100003342975469	stim12_sf2_pattern2_cont1_shape1.png	2	2	1	1	1	2	0	0	0	0	0	0	0	0	0	0	0	0	1	9
218.443359375	0.10000304973255	447372	181	10	stim10_sf2_pattern1_cont2_shape1.png	1	13	0	343.592281656802	343.692284706534	0.10000304973255	stim10_sf2_pattern1_cont2_shape1.png	2	1	2	1	1	1	0	0	0	0	0	0	0	0	0	0	0	0	1	9
218.943359375	0.0999872145857807	448396	182	14	stim14_sf2_pattern2_cont2_shape1.png	1	14	0	344.092297785191	344.192284999777	0.0999872145857807	stim14_sf2_pattern2_cont2_shape1.png	2	2	2	1	1	2	0	0	0	0	0	0	0	0	0	0	0	0	1	9
219.443359375	0.100021817312154	449420	183	13	stim13_sf2_pattern2_cont1_shape2.png	1	15	0	344.592254678406	344.692276495718	0.100021817312154	stim13_sf2_pattern2_cont1_shape2.png	2	2	1	2	1	2	0	0	0	0	0	0	0	0	0	0	0	0	1	9
219.943359375	0.100012726765272	450444	184	6	stim06_sf1_pattern2_cont2_shape1.png	1	16	0	345.092249106781	345.192261833547	0.100012726765272	stim06_sf1_pattern2_cont2_shape1.png	1	2	2	1	1	3	0	0	0	0	0	0	0	0	0	0	0	0	1	9
220.443359375	0.100000703785554	451468	185	5	stim05_sf1_pattern2_cont1_shape2.png	1	17	0	345.592257904083	345.692258607869	0.100000703785554	stim05_sf1_pattern2_cont1_shape2.png	1	2	1	2	1	3	0	0	0	0	0	0	0	0	0	0	0	0	1	9
220.943359375	0.100004809191887	452492	186	9	stim09_sf2_pattern1_cont1_shape2.png	1	18	0	346.092245001373	346.192249810565	0.100004809191887	stim09_sf2_pattern1_cont1_shape2.png	2	1	1	2	1	1	0	0	0	0	0	0	0	0	0	0	0	0	1	9
221.443359375	0.0999781240388984	453516	187	1	stim01_sf1_pattern1_cont1_shape2.png	1	19	0	346.592245294616	346.692223418655	0.0999781240388984	stim01_sf1_pattern1_cont1_shape2.png	1	1	1	2	1	4	0	0	0	0	0	0	0	0	0	0	0	0	1	9
221.943359375	0.100002756487811	454540	188	7	stim07_sf1_pattern2_cont2_shape2.png	1	20	0	347.092238843261	347.192241599749	0.100002756487811	stim07_sf1_pattern2_cont2_shape2.png	1	2	2	2	1	3	0	0	0	0	0	0	0	0	0	0	0	0	1	9
222.443359375	0.0999781240388984	455564	189	12	stim12_sf2_pattern2_cont1_shape1.png	1	21	0	347.592228286498	347.692206410537	0.0999781240388984	stim12_sf2_pattern2_cont1_shape1.png	2	2	1	1	1	2	0	0	0	0	0	0	0	0	0	0	0	0	1	9
222.943359375	0.0999957186468237	456588	190	11	stim11_sf2_pattern1_cont2_shape2.png	1	22	0	348.092201014857	348.192196733504	0.0999957186468237	stim11_sf2_pattern1_cont2_shape2.png	2	1	2	2	1	1	0	0	0	0	0	0	0	0	0	0	0	0	1	9
223.443359375	0.100011553791774	457612	191	13	stim13_sf2_pattern2_cont1_shape2.png	1	23	0	348.592189578363	348.692201132155	0.100011553791774	stim13_sf2_pattern2_cont1_shape2.png	2	2	1	2	1	2	0	0	0	0	0	0	0	0	0	0	0	0	1	9
223.943359375	0.100002170000153	458636	192	0	stim00_sf1_pattern1_cont1_shape1.png	1	24	0	349.092181074304	349.192183244304	0.100002170000153	stim00_sf1_pattern1_cont1_shape1.png	1	1	1	1	1	4	0	0	0	0	0	0	0	0	0	0	0	0	1	9
224.443359375	0.0999936659427476	459660	193	4	stim04_sf1_pattern2_cont1_shape1.png	1	25	0	349.592157908071	349.692151574014	0.0999936659427476	stim04_sf1_pattern2_cont1_shape1.png	1	2	1	1	1	3	0	0	0	0	0	0	0	0	0	0	0	0	1	9
224.94287109375	0.0999948389162455	460683	194	14	stim14_sf2_pattern2_cont2_shape1.png	1	26	0	350.09216289321	350.192157732126	0.0999948389162455	stim14_sf2_pattern2_cont2_shape1.png	2	2	2	1	1	2	0	0	0	0	0	0	0	0	0	0	0	0	1	9
225.44287109375	0.100000410540815	461707	195	8	stim08_sf2_pattern1_cont1_shape1.png	1	27	0	350.592134448598	350.692134859139	0.100000410540815	stim08_sf2_pattern1_cont1_shape1.png	2	1	1	1	1	1	0	0	0	0	0	0	0	0	0	0	0	0	1	9
225.94287109375	0.100004222706048	462731	196	3	stim03_sf1_pattern1_cont2_shape2.png	1	28	0	351.092114508043	351.192118730749	0.100004222706048	stim03_sf1_pattern1_cont2_shape2.png	1	1	2	2	1	4	0	0	0	0	0	0	0	0	0	0	0	0	1	9
226.44287109375	0.0999842821511265	463755	197	15	stim15_sf2_pattern2_cont2_shape2.png	1	29	0	351.592123012104	351.692107294255	0.0999842821511265	stim15_sf2_pattern2_cont2_shape2.png	2	2	2	2	1	2	0	0	0	0	0	0	0	0	0	0	0	0	1	9
226.94287109375	0.099992199724511	464779	198	10	stim10_sf2_pattern1_cont2_shape1.png	1	30	0	352.092109816149	352.192102015873	0.099992199724511	stim10_sf2_pattern1_cont2_shape1.png	2	1	2	1	1	1	0	0	0	0	0	0	0	0	0	0	0	0	1	9
227.44287109375	0.0999989443243976	465803	199	4	stim04_sf1_pattern2_cont1_shape1.png	1	31	1	352.592079612074	352.692078556398	0.0999989443243976	stim04_sf1_pattern2_cont1_shape1.png	1	2	1	1	1	3	0	0	0	0	0	0	0	0	0	0	0	0	1	9
227.94287109375	0.0999924929674307	466827	200	4	stim04_sf1_pattern2_cont1_shape1.png	1	32	1	353.092079905318	353.192072398286	0.0999924929674307	stim04_sf1_pattern2_cont1_shape1.png	1	2	1	1	1	3	0	0	0	0	0	0	0	0	0	0	0	0	1	9
228.44287109375	0.100005688922465	467851	201	7	stim07_sf1_pattern2_cont2_shape2.png	1	33	2	353.592060258008	353.692065946931	0.100005688922465	stim07_sf1_pattern2_cont2_shape2.png	1	2	2	2	1	3	0	0	0	0	0	0	0	0	0	0	0	0	1	9
228.94287109375	0.099972259171409	468875	202	10	stim10_sf2_pattern1_cont2_shape1.png	1	34	2	354.092062017467	354.192034276639	0.099972259171409	stim10_sf2_pattern1_cont2_shape1.png	2	1	2	1	1	1	0	0	0	0	0	0	0	0	0	0	0	0	1	9
229.44287109375	0.0999531983470661	469899	203	2	stim02_sf1_pattern1_cont2_shape1.png	1	35	0	354.592048821514	354.692002019861	0.0999531983470661	stim02_sf1_pattern1_cont2_shape1.png	1	1	2	1	1	4	0	0	0	0	0	0	0	0	0	0	0	0	1	9
229.94287109375	0.100060818689599	470923	204	13	stim13_sf2_pattern2_cont1_shape2.png	1	36	0	355.091962607943	355.192023426633	0.100060818689599	stim13_sf2_pattern2_cont1_shape2.png	2	2	1	2	1	2	0	0	0	0	0	0	0	0	0	0	0	0	1	9
230.44287109375	0.0999992375654983	471947	205	15	stim15_sf2_pattern2_cont2_shape2.png	1	37	0	355.591997210669	355.691996448235	0.0999992375654983	stim15_sf2_pattern2_cont2_shape2.png	2	2	2	2	1	2	0	0	0	0	0	0	0	0	0	0	0	0	1	9
230.94287109375	0.0999763645795611	472971	206	1	stim01_sf1_pattern1_cont1_shape2.png	1	38	0	356.091983428227	356.191959792806	0.0999763645795611	stim01_sf1_pattern1_cont1_shape2.png	1	1	1	2	1	4	0	0	0	0	0	0	0	0	0	0	0	0	1	9
231.44287109375	0.099999530810237	473995	207	10	stim10_sf2_pattern1_cont2_shape1.png	1	39	0	356.591966420108	356.691965950919	0.099999530810237	stim10_sf2_pattern1_cont2_shape1.png	2	1	2	1	1	1	0	0	0	0	0	0	0	0	0	0	0	0	1	9
231.94287109375	0.100001876759052	475019	208	6	stim06_sf1_pattern2_cont2_shape1.png	1	40	0	357.091953517396	357.191955394155	0.100001876759052	stim06_sf1_pattern2_cont2_shape1.png	1	2	2	1	1	3	0	0	0	0	0	0	0	0	0	0	0	0	1	9
232.44287109375	0.100002170000153	476043	209	8	stim08_sf2_pattern1_cont1_shape1.png	1	41	0	357.591928005219	357.691930175219	0.100002170000153	stim08_sf2_pattern1_cont1_shape1.png	2	1	1	1	1	1	0	0	0	0	0	0	0	0	0	0	0	0	1	9
232.94287109375	0.099997478106161	477067	210	11	stim11_sf2_pattern1_cont2_shape2.png	1	42	0	358.091902493039	358.191899971145	0.099997478106161	stim11_sf2_pattern1_cont2_shape2.png	2	1	2	2	1	1	0	0	0	0	0	0	0	0	0	0	0	0	1	9
233.44287109375	0.0999787105265568	478091	211	14	stim14_sf2_pattern2_cont2_shape1.png	1	43	0	358.591893402492	358.691872113019	0.0999787105265568	stim14_sf2_pattern2_cont2_shape1.png	2	2	2	1	1	2	0	0	0	0	0	0	0	0	0	0	0	0	1	9
233.94287109375	0.0999875078287005	479115	212	9	stim09_sf2_pattern1_cont1_shape2.png	1	44	0	359.09188812411	359.191875631939	0.0999875078287005	stim09_sf2_pattern1_cont1_shape2.png	2	1	1	2	1	1	0	0	0	0	0	0	0	0	0	0	0	0	1	9
234.44287109375	0.100015659199926	480139	213	7	stim07_sf1_pattern2_cont2_shape2.png	1	45	0	359.5918327011	359.6918483603	0.100015659199926	stim07_sf1_pattern2_cont2_shape2.png	1	2	2	2	1	3	0	0	0	0	0	0	0	0	0	0	0	0	1	9
234.94287109375	0.0999757780919026	481163	214	0	stim00_sf1_pattern1_cont1_shape1.png	1	46	0	360.091859386253	360.191835164345	0.0999757780919026	stim00_sf1_pattern1_cont1_shape1.png	1	1	1	1	1	4	0	0	0	0	0	0	0	0	0	0	0	0	1	9
235.44287109375	0.100006275408305	482187	215	2	stim02_sf1_pattern1_cont2_shape1.png	1	47	0	360.591846483543	360.691852758951	0.100006275408305	stim02_sf1_pattern1_cont2_shape1.png	1	1	2	1	1	4	0	0	0	0	0	0	0	0	0	0	0	0	1	9
235.94287109375	0.0999942524285871	483211	216	5	stim05_sf1_pattern2_cont1_shape2.png	1	48	0	361.091854107872	361.1918483603	0.0999942524285871	stim05_sf1_pattern2_cont1_shape2.png	1	2	1	2	1	3	0	0	0	0	0	0	0	0	0	0	0	0	1	9
236.44287109375	0.0999951321591652	484235	217	12	stim12_sf2_pattern2_cont1_shape1.png	1	49	0	361.591833580831	361.69182871299	0.0999951321591652	stim12_sf2_pattern2_cont1_shape1.png	2	2	1	1	1	2	0	0	0	0	0	0	0	0	0	0	0	0	1	9
236.94287109375	0.100004515948967	485259	218	3	stim03_sf1_pattern1_cont2_shape2.png	1	50	0	362.091825370015	362.191829885964	0.100004515948967	stim03_sf1_pattern1_cont2_shape2.png	1	1	2	2	1	4	0	0	0	0	0	0	0	0	0	0	0	0	1	9
237.44287109375	0.100017125418162	486283	219	4	stim04_sf1_pattern2_cont1_shape1.png	1	51	0	362.591801910539	362.691819035957	0.100017125418162	stim04_sf1_pattern2_cont1_shape1.png	1	2	1	1	1	3	0	0	0	0	0	0	0	0	0	0	0	0	1	9
237.94287109375	0.0999983578367392	487307	220	9	stim09_sf2_pattern1_cont1_shape2.png	1	52	0	363.091794579454	363.19179293729	0.0999983578367392	stim09_sf2_pattern1_cont1_shape2.png	2	1	1	2	1	1	0	0	0	0	0	0	0	0	0	0	0	0	1	9
238.44287109375	0.0999913199939328	488331	221	3	stim03_sf1_pattern1_cont2_shape2.png	1	53	0	363.591788128098	363.691779448092	0.0999913199939328	stim03_sf1_pattern1_cont2_shape2.png	1	1	2	2	1	4	0	0	0	0	0	0	0	0	0	0	0	0	1	9
238.94287109375	0.100001876759052	489355	222	8	stim08_sf2_pattern1_cont1_shape1.png	1	54	0	364.091789301072	364.191791177831	0.100001876759052	stim08_sf2_pattern1_cont1_shape1.png	2	1	1	1	1	1	0	0	0	0	0	0	0	0	0	0	0	0	1	9
239.44287109375	0.0999992375654983	490379	223	12	stim12_sf2_pattern2_cont1_shape1.png	1	55	0	364.59176085646	364.691760094025	0.0999992375654983	stim12_sf2_pattern2_cont1_shape1.png	2	2	1	1	1	2	0	0	0	0	0	0	0	0	0	0	0	0	1	9
239.94287109375	0.0999845753940463	491403	224	4	stim04_sf1_pattern2_cont1_shape1.png	1	56	0	365.091759976729	365.191744552123	0.0999845753940463	stim04_sf1_pattern2_cont1_shape1.png	1	2	1	1	1	3	0	0	0	0	0	0	0	0	0	0	0	0	1	9
240.44287109375	0.0999971848614223	492427	225	6	stim06_sf1_pattern2_cont2_shape1.png	1	57	0	365.591730945629	365.69172813049	0.0999971848614223	stim06_sf1_pattern2_cont2_shape1.png	1	2	2	1	1	3	0	0	0	0	0	0	0	0	0	0	0	0	1	9
240.94287109375	0.0999954254039039	493451	226	2	stim02_sf1_pattern1_cont2_shape1.png	1	58	0	366.091733878062	366.191729303466	0.0999954254039039	stim02_sf1_pattern1_cont2_shape1.png	1	1	2	1	1	4	0	0	0	0	0	0	0	0	0	0	0	0	1	9
241.44287109375	0.100000117297895	494475	227	1	stim01_sf1_pattern1_cont1_shape2.png	1	59	0	366.59169868885	366.691698806148	0.100000117297895	stim01_sf1_pattern1_cont1_shape2.png	1	1	1	2	1	4	0	0	0	0	0	0	0	0	0	0	0	0	1	9
241.94287109375	0.0999792970123963	495499	228	13	stim13_sf2_pattern2_cont1_shape2.png	1	60	0	367.091703087503	367.191682384515	0.0999792970123963	stim13_sf2_pattern2_cont1_shape2.png	2	2	1	2	1	2	0	0	0	0	0	0	0	0	0	0	0	0	1	9
242.4423828125	0.0999713794408308	496522	229	7	stim07_sf1_pattern2_cont2_shape2.png	1	61	0	367.591697809119	367.69166918856	0.0999713794408308	stim07_sf1_pattern2_cont2_shape2.png	1	2	2	2	1	3	0	0	0	0	0	0	0	0	0	0	0	0	1	9
242.9423828125	0.0999860416122829	497546	230	5	stim05_sf1_pattern2_cont1_shape2.png	1	62	0	368.091681680731	368.191667722343	0.0999860416122829	stim05_sf1_pattern2_cont1_shape2.png	1	2	1	2	1	3	0	0	0	0	0	0	0	0	0	0	0	0	1	9
243.4423828125	0.0999971848632413	498570	231	10	stim10_sf2_pattern1_cont2_shape1.png	1	63	0	368.591655288821	368.691652473684	0.0999971848632413	stim10_sf2_pattern1_cont2_shape1.png	2	1	2	1	1	1	0	0	0	0	0	0	0	0	0	0	0	0	1	9
243.9423828125	0.0999924929674307	499594	232	14	stim14_sf2_pattern2_cont2_shape1.png	1	64	0	369.091639453676	369.191631946644	0.0999924929674307	stim14_sf2_pattern2_cont2_shape1.png	2	2	2	1	1	2	0	0	0	0	0	0	0	0	0	0	0	0	1	9
244.4423828125	0.0999619956510287	500618	233	0	stim00_sf1_pattern1_cont1_shape1.png	1	65	0	369.591657928013	369.691619923664	0.0999619956510287	stim00_sf1_pattern1_cont1_shape1.png	1	1	1	1	1	4	0	0	0	0	0	0	0	0	0	0	0	0	1	9
244.9423828125	0.0999883875592786	501642	234	15	stim15_sf2_pattern2_cont2_shape2.png	1	66	0	370.091627723939	370.191616111499	0.0999883875592786	stim15_sf2_pattern2_cont2_shape2.png	2	2	2	2	1	2	0	0	0	0	0	0	0	0	0	0	0	0	1	9
245.4423828125	0.100000410540815	502666	235	11	stim11_sf2_pattern1_cont2_shape2.png	1	67	0	370.591615994201	370.691616404742	0.100000410540815	stim11_sf2_pattern1_cont2_shape2.png	2	1	2	2	1	1	0	0	0	0	0	0	0	0	0	0	0	0	1	9
245.9423828125	0.0999904402651737	503690	236	0	stim00_sf1_pattern1_cont1_shape1.png	1	68	0	371.091588136074	371.191578576339	0.0999904402651737	stim00_sf1_pattern1_cont1_shape1.png	1	1	1	1	1	4	0	0	0	0	0	0	0	0	0	0	0	0	1	9
246.4423828125	0.09999747810798	504714	237	14	stim14_sf2_pattern2_cont2_shape1.png	1	69	0	371.591570834711	371.691568312819	0.09999747810798	stim14_sf2_pattern2_cont2_shape1.png	2	2	2	1	1	2	0	0	0	0	0	0	0	0	0	0	0	0	1	9
246.9423828125	0.099979590255316	505738	238	15	stim15_sf2_pattern2_cont2_shape2.png	1	70	0	372.091581391476	372.191560981732	0.099979590255316	stim15_sf2_pattern2_cont2_shape2.png	2	2	2	2	1	2	0	0	0	0	0	0	0	0	0	0	0	0	1	9
247.4423828125	0.100037359212365	506762	239	5	stim05_sf1_pattern2_cont1_shape2.png	1	71	0	372.591506027913	372.691543387125	0.100037359212365	stim05_sf1_pattern2_cont1_shape2.png	1	2	1	2	1	3	0	0	0	0	0	0	0	0	0	0	0	0	1	9
247.9423828125	0.10003472002245	507786	240	11	stim11_sf2_pattern1_cont2_shape2.png	1	72	0	373.091525088736	373.191559808758	0.10003472002245	stim11_sf2_pattern1_cont2_shape2.png	2	1	2	2	1	1	0	0	0	0	0	0	0	0	0	0	0	0	1	9
248.4423828125	0.0999924929674307	508810	241	8	stim08_sf2_pattern1_cont1_shape1.png	1	73	0	373.591479636003	373.69147212897	0.0999924929674307	stim08_sf2_pattern1_cont1_shape1.png	2	1	1	1	1	1	0	0	0	0	0	0	0	0	0	0	0	0	1	9
248.9423828125	0.0999954254020849	509834	242	1	stim01_sf1_pattern1_cont1_shape2.png	1	74	0	374.091477583299	374.191473008701	0.0999954254020849	stim01_sf1_pattern1_cont1_shape2.png	1	1	1	2	1	4	0	0	0	0	0	0	0	0	0	0	0	0	1	9
249.4423828125	0.0999760713348223	510858	243	9	stim09_sf2_pattern1_cont1_shape2.png	1	75	0	374.591474357621	374.691450428956	0.0999760713348223	stim09_sf2_pattern1_cont1_shape2.png	2	1	1	2	1	1	0	0	0	0	0	0	0	0	0	0	0	0	1	9
249.9423828125	0.0999423483408464	511882	244	10	stim10_sf2_pattern1_cont2_shape1.png	1	76	0	375.091503095478	375.191445443819	0.0999423483408464	stim10_sf2_pattern1_cont2_shape1.png	2	1	2	1	1	1	0	0	0	0	0	0	0	0	0	0	0	0	1	9
250.4423828125	0.0999787105265568	512906	245	3	stim03_sf1_pattern1_cont2_shape2.png	1	77	0	375.591466146805	375.691444857332	0.0999787105265568	stim03_sf1_pattern1_cont2_shape2.png	1	1	2	2	1	4	0	0	0	0	0	0	0	0	0	0	0	0	1	9
250.9423828125	0.0999980645938194	513930	246	4	stim04_sf1_pattern2_cont1_shape1.png	1	78	0	376.091443860303	376.191441924897	0.0999980645938194	stim04_sf1_pattern2_cont1_shape1.png	1	2	1	1	1	3	0	0	0	0	0	0	0	0	0	0	0	0	1	9
251.4423828125	0.100002756487811	514954	247	6	stim06_sf1_pattern2_cont2_shape1.png	1	79	0	376.59142391975	376.691426676238	0.100002756487811	stim06_sf1_pattern2_cont2_shape1.png	1	2	2	1	1	3	0	0	0	0	0	0	0	0	0	0	0	0	1	9
251.95068359375	0.100017125416343	515995	248	7	stim07_sf1_pattern2_cont2_shape2.png	1	80	0	377.099754379298	377.199771504715	0.100017125416343	stim07_sf1_pattern2_cont2_shape2.png	1	2	2	2	1	3	0	0	0	0	0	0	0	0	0	0	0	0	1	9
252.45068359375	0.100000703783735	517019	249	13	stim13_sf2_pattern2_cont1_shape2.png	1	81	0	377.599744995508	377.699745699292	0.100000703783735	stim13_sf2_pattern2_cont1_shape2.png	2	2	1	2	1	2	0	0	0	0	0	0	0	0	0	0	0	0	1	9
252.95068359375	0.0999388294203527	518043	250	12	stim12_sf2_pattern2_cont1_shape1.png	1	82	0	378.099759071192	378.199697900613	0.0999388294203527	stim12_sf2_pattern2_cont1_shape1.png	2	2	1	1	1	2	0	0	0	0	0	0	0	0	0	0	0	0	1	9
253.45068359375	0.100018298389841	519067	251	2	stim02_sf1_pattern1_cont2_shape1.png	1	83	0	378.599696903584	378.699715201974	0.100018298389841	stim02_sf1_pattern1_cont2_shape1.png	1	1	2	1	1	4	0	0	0	0	0	0	0	0	0	0	0	0	1	9
253.95068359375	0.0999757780919026	520091	252	15	stim15_sf2_pattern2_cont2_shape2.png	1	84	0	379.099698663045	379.199674441137	0.0999757780919026	stim15_sf2_pattern2_cont2_shape2.png	2	2	2	2	1	2	0	0	0	0	0	0	0	0	0	0	0	0	1	9
254.45068359375	0.0999983578367392	521115	253	14	stim14_sf2_pattern2_cont2_shape1.png	1	85	0	379.59967520357	379.699673561407	0.0999983578367392	stim14_sf2_pattern2_cont2_shape1.png	2	2	2	1	1	2	0	0	0	0	0	0	0	0	0	0	0	0	1	9
254.95068359375	0.0999464537471795	522139	254	11	stim11_sf2_pattern1_cont2_shape2.png	1	86	0	380.099686053578	380.199632507325	0.0999464537471795	stim11_sf2_pattern1_cont2_shape2.png	2	1	2	2	1	1	0	0	0	0	0	0	0	0	0	0	0	0	1	9
255.45068359375	0.0999989443243976	523163	255	6	stim06_sf1_pattern2_cont2_shape1.png	1	87	0	380.599647345443	380.699646289768	0.0999989443243976	stim06_sf1_pattern2_cont2_shape1.png	1	2	2	1	1	3	0	0	0	0	0	0	0	0	0	0	0	0	1	9
255.95068359375	0.0999971848632413	524187	256	7	stim07_sf1_pattern2_cont2_shape2.png	1	88	0	381.099649398147	381.199646583011	0.0999971848632413	stim07_sf1_pattern2_cont2_shape2.png	1	2	2	2	1	3	0	0	0	0	0	0	0	0	0	0	0	0	1	9
256.45068359375	0.0999916132386716	525211	257	3	stim03_sf1_pattern1_cont2_shape2.png	1	89	0	381.599624765699	381.699616378937	0.0999916132386716	stim03_sf1_pattern1_cont2_shape2.png	1	1	2	2	1	4	0	0	0	0	0	0	0	0	0	0	0	0	1	9
256.95068359375	0.0999957186468237	526235	258	4	stim04_sf1_pattern2_cont1_shape1.png	1	90	0	382.099611569744	382.19960728839	0.0999957186468237	stim04_sf1_pattern2_cont1_shape1.png	1	2	1	1	1	3	0	0	0	0	0	0	0	0	0	0	0	0	1	9
257.45068359375	0.10003413353661	527259	259	10	stim10_sf2_pattern1_cont2_shape1.png	1	91	0	382.599596907572	382.699631041109	0.10003413353661	stim10_sf2_pattern1_cont2_shape1.png	2	1	2	1	1	1	0	0	0	0	0	0	0	0	0	0	0	0	1	9
257.95068359375	0.0999963051326631	528283	260	0	stim00_sf1_pattern1_cont1_shape1.png	1	92	0	383.099606584607	383.199602889739	0.0999963051326631	stim00_sf1_pattern1_cont1_shape1.png	1	1	1	1	1	4	0	0	0	0	0	0	0	0	0	0	0	0	1	9
258.45068359375	0.0999784172818181	529307	261	5	stim05_sf1_pattern2_cont1_shape2.png	1	93	0	383.599610983258	383.699589400539	0.0999784172818181	stim05_sf1_pattern2_cont1_shape2.png	1	2	1	2	1	3	0	0	0	0	0	0	0	0	0	0	0	0	1	9
258.95068359375	0.0999957186450047	530331	262	2	stim02_sf1_pattern1_cont2_shape1.png	1	94	0	384.099590162974	384.199585881619	0.0999957186450047	stim02_sf1_pattern1_cont2_shape1.png	1	1	2	1	1	4	0	0	0	0	0	0	0	0	0	0	0	0	1	9
259.45068359375	0.0999713794408308	531355	263	1	stim01_sf1_pattern1_cont1_shape2.png	1	95	0	384.599580485939	384.69955186538	0.0999713794408308	stim01_sf1_pattern1_cont1_shape2.png	1	1	1	2	1	4	0	0	0	0	0	0	0	0	0	0	0	0	1	9
259.95068359375	0.100003342975469	532379	264	9	stim09_sf2_pattern1_cont1_shape2.png	1	96	0	385.099551748082	385.199555091058	0.100003342975469	stim09_sf2_pattern1_cont1_shape2.png	2	1	1	2	1	1	0	0	0	0	0	0	0	0	0	0	0	0	1	9
260.45068359375	0.0999813497182913	533403	265	13	stim13_sf2_pattern2_cont1_shape2.png	1	97	0	385.599551454839	385.699532804558	0.0999813497182913	stim13_sf2_pattern2_cont1_shape2.png	2	2	1	2	1	2	0	0	0	0	0	0	0	0	0	0	0	0	1	9
260.95068359375	0.100015952442845	534427	266	12	stim12_sf2_pattern2_cont1_shape1.png	1	98	0	386.099514212923	386.199530165366	0.100015952442845	stim12_sf2_pattern2_cont1_shape1.png	2	2	1	1	1	2	0	0	0	0	0	0	0	0	0	0	0	0	1	9
261.4501953125	0.0999998240549758	535450	267	8	stim08_sf2_pattern1_cont1_shape1.png	1	99	0	386.599503362915	386.69950318697	0.0999998240549758	stim08_sf2_pattern1_cont1_shape1.png	2	1	1	1	1	1	0	0	0	0	0	0	0	0	0	0	0	0	1	9
261.9501953125	0.0999971848632413	536474	268	5	stim05_sf1_pattern2_cont1_shape2.png	1	100	0	387.099508054811	387.199505239674	0.0999971848632413	stim05_sf1_pattern2_cont1_shape2.png	1	2	1	2	1	3	0	0	0	0	0	0	0	0	0	0	0	0	1	9
262.4501953125	0.0999719659266702	537498	269	7	stim07_sf1_pattern2_cont2_shape2.png	1	101	0	387.599477850737	387.699449816664	0.0999719659266702	stim07_sf1_pattern2_cont2_shape2.png	1	2	2	2	1	3	0	0	0	0	0	0	0	0	0	0	0	0	1	9
262.9501953125	0.0999945456715068	538522	270	13	stim13_sf2_pattern2_cont1_shape2.png	1	102	0	388.099482249389	388.19947679506	0.0999945456715068	stim13_sf2_pattern2_cont1_shape2.png	2	2	1	2	1	2	0	0	0	0	0	0	0	0	0	0	0	0	1	9
263.4501953125	0.099990147020435	539546	271	15	stim15_sf2_pattern2_cont2_shape2.png	1	103	0	388.599451458827	388.699441605848	0.099990147020435	stim15_sf2_pattern2_cont2_shape2.png	2	2	2	2	1	2	0	0	0	0	0	0	0	0	0	0	0	0	1	9
263.9501953125	0.100003929461309	540570	272	1	stim01_sf1_pattern1_cont1_shape2.png	1	104	0	389.099440608821	389.199444538282	0.100003929461309	stim01_sf1_pattern1_cont1_shape2.png	1	1	1	2	1	4	0	0	0	0	0	0	0	0	0	0	0	0	1	9
264.4501953125	0.0999980645938194	541594	273	9	stim09_sf2_pattern1_cont1_shape2.png	1	105	0	389.599423307458	389.699421372052	0.0999980645938194	stim09_sf2_pattern1_cont1_shape2.png	2	1	1	2	1	1	0	0	0	0	0	0	0	0	0	0	0	0	1	9
264.9501953125	0.0999810564735526	542618	274	2	stim02_sf1_pattern1_cont2_shape1.png	1	106	0	390.09942858584	390.199409642313	0.0999810564735526	stim02_sf1_pattern1_cont2_shape1.png	1	1	2	1	1	4	0	0	0	0	0	0	0	0	0	0	0	0	1	9
265.4501953125	0.0999678605185181	543642	275	11	stim11_sf2_pattern1_cont2_shape2.png	1	107	0	390.599387825003	390.699355685521	0.0999678605185181	stim11_sf2_pattern1_cont2_shape2.png	2	1	2	2	1	1	0	0	0	0	0	0	0	0	0	0	0	0	1	9
265.9501953125	0.0999992375673173	544666	276	0	stim00_sf1_pattern1_cont1_shape1.png	1	108	0	391.099401900687	391.199401138254	0.0999992375673173	stim00_sf1_pattern1_cont1_shape1.png	1	1	1	1	1	4	0	0	0	0	0	0	0	0	0	0	0	0	1	9
266.4501953125	0.0999927862121694	545690	277	14	stim14_sf2_pattern2_cont2_shape1.png	1	109	0	391.599378441211	391.699371227423	0.0999927862121694	stim14_sf2_pattern2_cont2_shape1.png	2	2	2	1	1	2	0	0	0	0	0	0	0	0	0	0	0	0	1	9
266.9501953125	0.0999919064815913	546714	278	3	stim03_sf1_pattern1_cont2_shape2.png	1	110	0	392.099373749317	392.199365655799	0.0999919064815913	stim03_sf1_pattern1_cont2_shape2.png	1	1	2	2	1	4	0	0	0	0	0	0	0	0	0	0	0	0	1	9
267.4501953125	0.10001859163458	547738	279	12	stim12_sf2_pattern2_cont1_shape1.png	1	111	0	392.599324777662	392.699343369297	0.10001859163458	stim12_sf2_pattern2_cont1_shape1.png	2	2	1	1	1	2	0	0	0	0	0	0	0	0	0	0	0	0	1	9
267.9501953125	0.100007155138883	548762	280	8	stim08_sf2_pattern1_cont1_shape1.png	1	112	0	393.099337680374	393.199344835513	0.100007155138883	stim08_sf2_pattern1_cont1_shape1.png	2	1	1	1	1	1	0	0	0	0	0	0	0	0	0	0	0	0	1	9
268.4501953125	0.100000997028474	549786	281	10	stim10_sf2_pattern1_cont2_shape1.png	1	113	0	393.599310995221	393.69931199225	0.100000997028474	stim10_sf2_pattern1_cont2_shape1.png	2	1	2	1	1	1	0	0	0	0	0	0	0	0	0	0	0	0	1	9
268.9501953125	0.0999951321591652	550810	282	6	stim06_sf1_pattern2_cont2_shape1.png	1	114	0	394.099294280346	394.199289412505	0.0999951321591652	stim06_sf1_pattern2_cont2_shape1.png	1	2	2	1	1	3	0	0	0	0	0	0	0	0	0	0	0	0	1	9
269.4501953125	0.099981642961211	551834	283	4	stim04_sf1_pattern2_cont1_shape1.png	1	115	0	394.599288122234	394.699269765195	0.099981642961211	stim04_sf1_pattern2_cont1_shape1.png	1	2	1	1	1	3	0	0	0	0	0	0	0	0	0	0	0	0	1	9
269.9501953125	0.100036186238867	552858	284	3	stim03_sf1_pattern1_cont2_shape2.png	1	116	0	395.09923827085	395.199274457089	0.100036186238867	stim03_sf1_pattern1_cont2_shape2.png	1	1	2	2	1	4	0	0	0	0	0	0	0	0	0	0	0	0	1	9
270.4501953125	0.0999939591856673	553882	285	6	stim06_sf1_pattern2_cont2_shape1.png	1	117	0	395.599245308691	395.699239267877	0.0999939591856673	stim06_sf1_pattern2_cont2_shape1.png	1	2	2	1	1	3	0	0	0	0	0	0	0	0	0	0	0	0	1	9
270.9501953125	0.0999945456715068	554906	286	14	stim14_sf2_pattern2_cont2_shape1.png	1	118	0	396.099250000587	396.199244546258	0.0999945456715068	stim14_sf2_pattern2_cont2_shape1.png	2	2	2	1	1	2	0	0	0	0	0	0	0	0	0	0	0	0	1	9
271.4501953125	0.0999857483693631	555930	287	9	stim09_sf2_pattern1_cont1_shape2.png	1	119	0	396.599236511389	396.699222259758	0.0999857483693631	stim09_sf2_pattern1_cont1_shape2.png	2	1	1	2	1	1	0	0	0	0	0	0	0	0	0	0	0	0	1	9
271.9501953125	0.10000304973255	556954	288	12	stim12_sf2_pattern2_cont1_shape1.png	1	120	0	397.099213345156	397.199216394889	0.10000304973255	stim12_sf2_pattern2_cont1_shape1.png	2	2	1	1	1	2	0	0	0	0	0	0	0	0	0	0	0	0	1	9
272.4501953125	0.0999965983755828	557978	289	7	stim07_sf1_pattern2_cont2_shape2.png	1	121	0	397.599209532993	397.699206131369	0.0999965983755828	stim07_sf1_pattern2_cont2_shape2.png	1	2	2	2	1	3	0	0	0	0	0	0	0	0	0	0	0	0	1	9
272.9501953125	0.0999851618817047	559002	290	0	stim00_sf1_pattern1_cont1_shape1.png	1	122	0	398.099201322177	398.199186484058	0.0999851618817047	stim00_sf1_pattern1_cont1_shape1.png	1	1	1	1	1	4	0	0	0	0	0	0	0	0	0	0	0	0	1	9
273.4501953125	0.0999778307977977	560026	291	5	stim05_sf1_pattern2_cont1_shape2.png	1	123	0	398.599189592438	398.699167423236	0.0999778307977977	stim05_sf1_pattern2_cont1_shape2.png	1	2	1	2	1	3	0	0	0	0	0	0	0	0	0	0	0	0	1	9
273.9501953125	0.0999907335080934	561050	292	15	stim15_sf2_pattern2_cont2_shape2.png	1	124	0	399.099190472169	399.199181205677	0.0999907335080934	stim15_sf2_pattern2_cont2_shape2.png	2	2	2	2	1	2	0	0	0	0	0	0	0	0	0	0	0	0	1	9
274.4501953125	0.100000117296076	562074	293	11	stim11_sf2_pattern1_cont2_shape2.png	1	125	0	399.599157922148	399.699158039444	0.100000117296076	stim11_sf2_pattern1_cont2_shape2.png	2	1	2	2	1	1	0	0	0	0	0	0	0	0	0	0	0	0	1	9
274.9501953125	0.0999787105265568	563098	294	8	stim08_sf2_pattern1_cont1_shape1.png	1	126	0	400.099154403226	400.199133113752	0.0999787105265568	stim08_sf2_pattern1_cont1_shape1.png	2	1	1	1	1	1	0	0	0	0	0	0	0	0	0	0	0	0	1	9
275.4501953125	0.0999968916203215	564122	295	13	stim13_sf2_pattern2_cont1_shape2.png	1	127	0	400.599130357265	400.699127248885	0.0999968916203215	stim13_sf2_pattern2_cont1_shape2.png	2	2	1	2	1	2	0	0	0	0	0	0	0	0	0	0	0	0	1	9
275.9501953125	0.0999886808021984	565146	296	1	stim01_sf1_pattern1_cont1_shape2.png	1	128	0	401.099139154569	401.199127835371	0.0999886808021984	stim01_sf1_pattern1_cont1_shape2.png	1	1	1	2	1	4	0	0	0	0	0	0	0	0	0	0	0	0	1	9
276.4501953125	0.0999904402651737	566170	297	4	stim04_sf1_pattern2_cont1_shape1.png	1	129	0	401.599106897789	401.699097338054	0.0999904402651737	stim04_sf1_pattern2_cont1_shape1.png	1	2	1	1	1	3	0	0	0	0	0	0	0	0	0	0	0	0	1	9
276.9501953125	0.0999734321449068	567194	298	10	stim10_sf2_pattern1_cont2_shape1.png	1	130	0	402.099095168052	402.199068600197	0.0999734321449068	stim10_sf2_pattern1_cont2_shape1.png	2	1	2	1	1	1	0	0	0	0	0	0	0	0	0	0	0	0	1	9
277.4501953125	0.0999930794550892	568218	299	2	stim02_sf1_pattern1_cont2_shape1.png	1	131	0	402.599079039663	402.699072119118	0.0999930794550892	stim02_sf1_pattern1_cont2_shape1.png	1	1	2	1	1	4	0	0	0	0	0	0	0	0	0	0	0	0	1	9
277.9501953125	0.100010967304115	569242	300	15	stim15_sf2_pattern2_cont2_shape2.png	1	132	0	403.099062031544	403.199072998848	0.100010967304115	stim15_sf2_pattern2_cont2_shape2.png	2	2	2	2	1	2	0	0	0	0	0	0	0	0	0	0	0	0	1	9
278.44970703125	0.100013899738769	570265	301	12	stim12_sf2_pattern2_cont1_shape1.png	1	133	0	403.599032413957	403.699046313695	0.100013899738769	stim12_sf2_pattern2_cont1_shape1.png	2	2	1	1	1	2	0	0	0	0	0	0	0	0	0	0	0	0	1	9
278.94970703125	0.099979590255316	571289	302	14	stim14_sf2_pattern2_cont2_shape1.png	1	134	0	404.099053527485	404.19903311774	0.099979590255316	stim14_sf2_pattern2_cont2_shape1.png	2	2	2	1	1	2	0	0	0	0	0	0	0	0	0	0	0	0	1	9
279.44970703125	0.0999737253878266	572313	303	2	stim02_sf1_pattern1_cont2_shape1.png	1	135	0	404.59902420314	404.698997928528	0.0999737253878266	stim02_sf1_pattern1_cont2_shape1.png	1	1	2	1	1	4	0	0	0	0	0	0	0	0	0	0	0	0	1	9
279.94970703125	0.100003049730731	573337	304	8	stim08_sf2_pattern1_cont1_shape1.png	1	136	0	405.099008367995	405.199011417726	0.100003049730731	stim08_sf2_pattern1_cont1_shape1.png	2	1	1	1	1	1	0	0	0	0	0	0	0	0	0	0	0	0	1	9
280.44970703125	0.099997478106161	574361	305	11	stim11_sf2_pattern1_cont2_shape2.png	1	137	0	405.598996051771	405.698993529877	0.099997478106161	stim11_sf2_pattern1_cont2_shape2.png	2	1	2	2	1	1	0	0	0	0	0	0	0	0	0	0	0	0	1	9
280.94970703125	0.100000117296076	575385	306	3	stim03_sf1_pattern1_cont2_shape2.png	1	138	0	406.09900103691	406.199001154206	0.100000117296076	stim03_sf1_pattern1_cont2_shape2.png	1	1	2	2	1	4	0	0	0	0	0	0	0	0	0	0	0	0	1	9
281.44970703125	0.100016245685765	576409	307	13	stim13_sf2_pattern2_cont1_shape2.png	1	139	0	406.598948839577	406.698965085263	0.100016245685765	stim13_sf2_pattern2_cont1_shape2.png	2	2	1	2	1	2	0	0	0	0	0	0	0	0	0	0	0	0	1	9
281.94970703125	0.100000117297895	577433	308	5	stim05_sf1_pattern2_cont1_shape2.png	1	140	0	407.098973472026	407.198973589324	0.100000117297895	stim05_sf1_pattern2_cont1_shape2.png	1	2	1	2	1	3	0	0	0	0	0	0	0	0	0	0	0	0	1	9
282.44970703125	0.100005982167204	578457	309	7	stim07_sf1_pattern2_cont2_shape2.png	1	141	0	407.598923327398	407.698929309565	0.100005982167204	stim07_sf1_pattern2_cont2_shape2.png	1	2	2	2	1	3	0	0	0	0	0	0	0	0	0	0	0	0	1	9
282.94970703125	0.0999945456715068	579481	310	1	stim01_sf1_pattern1_cont1_shape2.png	1	142	0	408.098929778755	408.198924324426	0.0999945456715068	stim01_sf1_pattern1_cont1_shape2.png	1	1	1	2	1	4	0	0	0	0	0	0	0	0	0	0	0	0	1	9
283.44970703125	0.100011847034693	580505	311	6	stim06_sf1_pattern2_cont2_shape1.png	1	143	0	408.598877581422	408.698889428457	0.100011847034693	stim06_sf1_pattern2_cont2_shape1.png	1	2	2	1	1	3	0	0	0	0	0	0	0	0	0	0	0	0	1	9
283.94970703125	0.100006568653043	581529	312	9	stim09_sf2_pattern1_cont1_shape2.png	1	144	0	409.098863798981	409.198870367634	0.100006568653043	stim09_sf2_pattern1_cont1_shape2.png	2	1	1	2	1	1	0	0	0	0	0	0	0	0	0	0	0	0	1	9
284.44970703125	0.100009501087698	582553	313	10	stim10_sf2_pattern1_cont2_shape1.png	1	145	0	409.598847670592	409.698857171679	0.100009501087698	stim10_sf2_pattern1_cont2_shape1.png	2	1	2	1	1	1	0	0	0	0	0	0	0	0	0	0	0	0	1	9
284.94970703125	0.0999948389144265	583577	314	4	stim04_sf1_pattern2_cont1_shape1.png	1	146	0	410.098847377349	410.198842216263	0.0999948389144265	stim04_sf1_pattern2_cont1_shape1.png	1	2	1	1	1	3	0	0	0	0	0	0	0	0	0	0	0	0	1	9
285.44970703125	0.0999965983755828	584601	315	0	stim00_sf1_pattern1_cont1_shape1.png	1	147	0	410.598824504361	410.698821102736	0.0999965983755828	stim00_sf1_pattern1_cont1_shape1.png	1	1	1	1	1	4	0	0	0	0	0	0	0	0	0	0	0	0	1	9
285.94970703125	0.099990147020435	585625	316	15	stim15_sf2_pattern2_cont2_shape2.png	1	148	0	411.098830662473	411.198820809494	0.099990147020435	stim15_sf2_pattern2_cont2_shape2.png	2	2	2	2	1	2	0	0	0	0	0	0	0	0	0	0	0	0	1	9
286.44970703125	0.0999951321591652	586649	317	11	stim11_sf2_pattern1_cont2_shape2.png	1	149	0	411.598824504361	411.69881963652	0.0999951321591652	stim11_sf2_pattern1_cont2_shape2.png	2	1	2	2	1	1	0	0	0	0	0	0	0	0	0	0	0	0	1	9
286.94970703125	0.10000304973255	587673	318	3	stim03_sf1_pattern1_cont2_shape2.png	1	150	0	412.098818053004	412.198821102736	0.10000304973255	stim03_sf1_pattern1_cont2_shape2.png	1	1	2	2	1	4	0	0	0	0	0	0	0	0	0	0	0	0	1	9
287.44970703125	0.100004809191887	588697	319	5	stim05_sf1_pattern2_cont1_shape2.png	1	151	0	412.598803390832	412.698808200024	0.100004809191887	stim05_sf1_pattern2_cont1_shape2.png	1	2	1	2	1	3	0	0	0	0	0	0	0	0	0	0	0	0	1	9
287.94970703125	0.100008621357119	589721	320	0	stim00_sf1_pattern1_cont1_shape1.png	1	152	0	413.098783450279	413.198792071636	0.100008621357119	stim00_sf1_pattern1_cont1_shape1.png	1	1	1	1	1	4	0	0	0	0	0	0	0	0	0	0	0	0	1	9
288.44970703125	0.100008034869461	590745	321	14	stim14_sf2_pattern2_cont2_shape1.png	1	153	0	413.598785209741	413.69879324461	0.100008034869461	stim14_sf2_pattern2_cont2_shape1.png	2	2	2	1	1	2	0	0	0	0	0	0	0	0	0	0	0	0	1	9
288.94970703125	0.0999968916203215	591769	322	10	stim10_sf2_pattern1_cont2_shape1.png	1	154	0	414.098794007043	414.198790898663	0.0999968916203215	stim10_sf2_pattern1_cont2_shape1.png	2	1	2	1	1	1	0	0	0	0	0	0	0	0	0	0	0	0	1	9
289.44970703125	0.0999834024205484	592793	323	6	stim06_sf1_pattern2_cont2_shape1.png	1	155	0	414.59877494622	414.698758348641	0.0999834024205484	stim06_sf1_pattern2_cont2_shape1.png	1	2	2	1	1	3	0	0	0	0	0	0	0	0	0	0	0	0	1	9
289.94970703125	0.0999998240531568	593817	324	13	stim13_sf2_pattern2_cont1_shape2.png	1	156	0	415.098752366475	415.198752190528	0.0999998240531568	stim13_sf2_pattern2_cont1_shape2.png	2	2	1	2	1	2	0	0	0	0	0	0	0	0	0	0	0	0	1	9
290.44970703125	0.0999910267510131	594841	325	7	stim07_sf1_pattern2_cont2_shape2.png	1	157	0	415.598739463763	415.698730490514	0.0999910267510131	stim07_sf1_pattern2_cont2_shape2.png	1	2	2	2	1	3	0	0	0	0	0	0	0	0	0	0	0	0	1	9
290.94970703125	0.0999505591571506	595865	326	8	stim08_sf2_pattern1_cont1_shape1.png	1	158	0	416.098714831314	416.198665390471	0.0999505591571506	stim08_sf2_pattern1_cont1_shape1.png	2	1	1	1	1	1	0	0	0	0	0	0	0	0	0	0	0	0	1	9
291.44970703125	0.100001876757233	596889	327	12	stim12_sf2_pattern2_cont1_shape1.png	1	159	0	416.598705154282	416.698707031039	0.100001876757233	stim12_sf2_pattern2_cont1_shape1.png	2	2	1	1	1	2	0	0	0	0	0	0	0	0	0	0	0	0	1	9
291.94970703125	0.0999960118897434	597913	328	4	stim04_sf1_pattern2_cont1_shape1.png	1	160	0	417.098684920484	417.198680932373	0.0999960118897434	stim04_sf1_pattern2_cont1_shape1.png	1	2	1	1	1	3	0	0	0	0	0	0	0	0	0	0	0	0	1	9
292.44970703125	0.100046156516328	598937	329	1	stim01_sf1_pattern1_cont1_shape2.png	1	161	0	417.598638001535	417.698684158051	0.100046156516328	stim01_sf1_pattern1_cont1_shape2.png	1	1	1	2	1	4	0	0	0	0	0	0	0	0	0	0	0	0	1	9
292.94970703125	0.100022110555074	599961	330	9	stim09_sf2_pattern1_cont1_shape2.png	1	162	0	418.098652663706	418.198674774261	0.100022110555074	stim09_sf2_pattern1_cont1_shape2.png	2	1	1	2	1	1	0	0	0	0	0	0	0	0	0	0	0	0	1	9
293.44970703125	0.100000410540815	600985	331	2	stim02_sf1_pattern1_cont2_shape1.png	1	163	0	418.598648265055	418.698648675596	0.100000410540815	stim02_sf1_pattern1_cont2_shape1.png	1	1	2	1	1	4	0	0	0	0	0	0	0	0	0	0	0	0	1	9
309.265625	0.0999769510672195	633376	332	7	stim07_sf1_pattern2_cont2_shape2.png	2	0	0	434.414910138481	434.514887089548	0.0999769510672195	stim07_sf1_pattern2_cont2_shape2.png	1	2	2	2	1	3	0	0	0	0	0	0	0	0	0	0	0	0	1	9
309.765625	0.0999452807736816	634400	333	12	stim12_sf2_pattern2_cont1_shape1.png	2	1	0	434.914898995232	435.014844276006	0.0999452807736816	stim12_sf2_pattern2_cont1_shape1.png	2	2	1	1	1	2	0	0	0	0	0	0	0	0	0	0	0	0	1	9
310.265625	0.0999845753958652	635424	334	2	stim02_sf1_pattern1_cont2_shape1.png	2	2	0	435.414855301959	435.514839877354	0.0999845753958652	stim02_sf1_pattern1_cont2_shape1.png	1	1	2	1	1	4	0	0	0	0	0	0	0	0	0	0	0	0	1	9
310.765625	0.0999927862103505	636448	335	15	stim15_sf2_pattern2_cont2_shape2.png	2	3	0	435.914851783038	436.014844569248	0.0999927862103505	stim15_sf2_pattern2_cont2_shape2.png	2	2	2	2	1	2	0	0	0	0	0	0	0	0	0	0	0	0	1	9
311.265625	0.0999860416122829	637472	336	14	stim14_sf2_pattern2_cont2_shape1.png	2	4	0	436.414834774918	436.51482081653	0.0999860416122829	stim14_sf2_pattern2_cont2_shape1.png	2	2	2	1	1	2	0	0	0	0	0	0	0	0	0	0	0	0	1	9
311.765625	0.0999942524285871	638496	337	9	stim09_sf2_pattern1_cont1_shape2.png	2	5	0	436.914816593826	437.014810846254	0.0999942524285871	stim09_sf2_pattern1_cont1_shape2.png	2	1	1	2	1	1	0	0	0	0	0	0	0	0	0	0	0	0	1	9
312.265625	0.0999957186450047	639520	338	10	stim10_sf2_pattern1_cont2_shape1.png	2	6	0	437.414809555983	437.514805274628	0.0999957186450047	stim10_sf2_pattern1_cont2_shape1.png	2	1	2	1	1	1	0	0	0	0	0	0	0	0	0	0	0	0	1	9
312.765625	0.100004222706048	640544	339	4	stim04_sf1_pattern2_cont1_shape1.png	2	7	0	437.914784923534	438.01478914624	0.100004222706048	stim04_sf1_pattern2_cont1_shape1.png	1	2	1	1	1	3	0	0	0	0	0	0	0	0	0	0	0	0	1	9
313.265625	0.100002463244891	641568	340	1	stim01_sf1_pattern1_cont1_shape2.png	2	8	0	438.414779938395	438.51478240164	0.100002463244891	stim01_sf1_pattern1_cont1_shape2.png	1	1	1	2	1	4	0	0	0	0	0	0	0	0	0	0	0	0	1	9
313.765625	0.0999822294488695	642592	341	8	stim08_sf2_pattern1_cont1_shape1.png	2	9	0	438.914770847849	439.014753077297	0.0999822294488695	stim08_sf2_pattern1_cont1_shape1.png	2	1	1	1	1	1	0	0	0	0	0	0	0	0	0	0	0	0	1	9
314.265625	0.100019178120419	643616	342	6	stim06_sf1_pattern2_cont2_shape1.png	2	10	0	439.414736245124	439.514755423244	0.100019178120419	stim06_sf1_pattern2_cont2_shape1.png	1	2	2	1	1	3	0	0	0	0	0	0	0	0	0	0	0	0	1	9
314.765625	0.0999924929674307	644640	343	3	stim03_sf1_pattern1_cont2_shape2.png	2	11	0	439.914746801887	440.014739294855	0.0999924929674307	stim03_sf1_pattern1_cont2_shape2.png	1	1	2	2	1	4	0	0	0	0	0	0	0	0	0	0	0	0	1	9
315.265625	0.0999957186450047	645664	344	5	stim05_sf1_pattern2_cont1_shape2.png	2	12	0	440.414745628914	440.514741347559	0.0999957186450047	stim05_sf1_pattern2_cont1_shape2.png	1	2	1	2	1	3	0	0	0	0	0	0	0	0	0	0	0	0	1	9
315.765625	0.100005982165385	646688	345	11	stim11_sf2_pattern1_cont2_shape2.png	2	13	0	440.914734485663	441.014740467828	0.100005982165385	stim11_sf2_pattern1_cont2_shape2.png	2	1	2	2	1	1	0	0	0	0	0	0	0	0	0	0	0	0	1	9
316.265625	0.100010674061195	647712	346	13	stim13_sf2_pattern2_cont1_shape2.png	2	14	0	441.414704868075	441.514715542136	0.100010674061195	stim13_sf2_pattern2_cont1_shape2.png	2	2	1	2	1	2	0	0	0	0	0	0	0	0	0	0	0	0	1	9
316.765625	0.0999916132386716	648736	347	0	stim00_sf1_pattern1_cont1_shape1.png	2	15	0	441.914709853214	442.014701466453	0.0999916132386716	stim00_sf1_pattern1_cont1_shape1.png	1	1	1	1	1	4	0	0	0	0	0	0	0	0	0	0	0	0	1	9
317.265625	0.10000803487128	649760	348	3	stim03_sf1_pattern1_cont2_shape2.png	2	16	0	442.414664693724	442.514672728596	0.10000803487128	stim03_sf1_pattern1_cont2_shape2.png	1	1	2	2	1	4	0	0	0	0	0	0	0	0	0	0	0	0	1	9
317.765625	0.100004222706048	650784	349	5	stim05_sf1_pattern2_cont1_shape2.png	2	17	0	442.914663227508	443.014667450214	0.100004222706048	stim05_sf1_pattern2_cont1_shape2.png	1	2	1	2	1	3	0	0	0	0	0	0	0	0	0	0	0	0	1	9
318.265625	0.100002463244891	651808	350	11	stim11_sf2_pattern1_cont2_shape2.png	2	18	0	443.414647978849	443.514650442094	0.100002463244891	stim11_sf2_pattern1_cont2_shape2.png	2	1	2	2	1	1	0	0	0	0	0	0	0	0	0	0	0	0	1	9
318.765625	0.0999880943163589	652832	351	7	stim07_sf1_pattern2_cont2_shape2.png	2	19	0	443.914647099118	444.014635193435	0.0999880943163589	stim07_sf1_pattern2_cont2_shape2.png	1	2	2	2	1	3	0	0	0	0	0	0	0	0	0	0	0	0	1	9
319.265625	0.100003049730731	653856	352	2	stim02_sf1_pattern1_cont2_shape1.png	2	20	0	444.414624519375	444.514627569106	0.100003049730731	stim02_sf1_pattern1_cont2_shape1.png	1	1	2	1	1	4	0	0	0	0	0	0	0	0	0	0	0	0	1	9
319.765625	0.0999441078001837	654880	353	0	stim00_sf1_pattern1_cont1_shape1.png	2	21	0	444.914626572079	445.014570679879	0.0999441078001837	stim00_sf1_pattern1_cont1_shape1.png	1	1	1	1	1	4	0	0	0	0	0	0	0	0	0	0	0	0	1	9
320.265625	0.0999713794408308	655904	354	14	stim14_sf2_pattern2_cont2_shape1.png	2	22	0	445.414621293696	445.514592673137	0.0999713794408308	stim14_sf2_pattern2_cont2_shape1.png	2	2	2	1	1	2	0	0	0	0	0	0	0	0	0	0	0	0	1	9
320.765625	0.0999965983755828	656928	355	1	stim01_sf1_pattern1_cont1_shape2.png	2	23	0	445.91458141259	446.014578010965	0.0999965983755828	stim01_sf1_pattern1_cont1_shape2.png	1	1	1	2	1	4	0	0	0	0	0	0	0	0	0	0	0	0	1	9
321.265625	0.0999913199939328	657952	356	13	stim13_sf2_pattern2_cont1_shape2.png	2	24	0	446.414569389608	446.514560709602	0.0999913199939328	stim13_sf2_pattern2_cont1_shape2.png	2	2	1	2	1	2	0	0	0	0	0	0	0	0	0	0	0	0	1	9
321.765625	0.0999889740469371	658976	357	15	stim15_sf2_pattern2_cont2_shape2.png	2	25	0	446.914578480155	447.014567454202	0.0999889740469371	stim15_sf2_pattern2_cont2_shape2.png	2	2	2	2	1	2	0	0	0	0	0	0	0	0	0	0	0	0	1	9
322.265625	0.099992199724511	660000	358	9	stim09_sf2_pattern1_cont1_shape2.png	2	26	0	447.414562938253	447.514555137977	0.099992199724511	stim09_sf2_pattern1_cont1_shape2.png	2	1	1	2	1	1	0	0	0	0	0	0	0	0	0	0	0	0	1	9
322.76513671875	0.0999948389162455	661023	359	6	stim06_sf1_pattern2_cont2_shape1.png	2	27	0	447.914532147692	448.014526986608	0.0999948389162455	stim06_sf1_pattern2_cont2_shape1.png	1	2	2	1	1	3	0	0	0	0	0	0	0	0	0	0	0	0	1	9
323.26513671875	0.100008621357119	662047	360	4	stim04_sf1_pattern2_cont1_shape1.png	2	28	1	448.414516312547	448.514524933904	0.100008621357119	stim04_sf1_pattern2_cont1_shape1.png	1	2	1	1	1	3	0	0	0	0	0	0	0	0	0	0	0	0	1	9
323.76513671875	0.0999936659409286	663071	361	4	stim04_sf1_pattern2_cont1_shape1.png	2	29	1	448.914495785506	449.014489451447	0.0999936659409286	stim04_sf1_pattern2_cont1_shape1.png	1	2	1	1	1	3	0	0	0	0	0	0	0	0	0	0	0	0	1	9
324.26513671875	0.100012140277613	664095	362	5	stim05_sf1_pattern2_cont1_shape2.png	2	30	2	449.414494612533	449.51450675281	0.100012140277613	stim05_sf1_pattern2_cont1_shape2.png	1	2	1	2	1	3	0	0	0	0	0	0	0	0	0	0	0	0	1	9
324.76513671875	0.09994586726134	665119	363	13	stim13_sf2_pattern2_cont1_shape2.png	2	31	2	449.914482296308	450.014428163569	0.09994586726134	stim13_sf2_pattern2_cont1_shape2.png	2	2	1	2	1	2	0	0	0	0	0	0	0	0	0	0	0	0	1	9
325.26513671875	0.100027975424382	666143	364	8	stim08_sf2_pattern1_cont1_shape1.png	2	32	0	450.4144133841	450.514441359524	0.100027975424382	stim08_sf2_pattern1_cont1_shape1.png	2	1	1	1	1	1	0	0	0	0	0	0	0	0	0	0	0	0	1	9
325.76513671875	0.0999930794550892	667167	365	12	stim12_sf2_pattern2_cont1_shape1.png	2	33	0	450.914404586796	451.014397666251	0.0999930794550892	stim12_sf2_pattern2_cont1_shape1.png	2	2	1	1	1	2	0	0	0	0	0	0	0	0	0	0	0	0	1	9
326.26513671875	0.0999913199939328	668191	366	10	stim10_sf2_pattern1_cont2_shape1.png	2	34	0	451.414379954349	451.514371274343	0.0999913199939328	stim10_sf2_pattern1_cont2_shape1.png	2	1	2	1	1	1	0	0	0	0	0	0	0	0	0	0	0	0	1	9
326.76513671875	0.0999822294488695	669215	367	4	stim04_sf1_pattern2_cont1_shape1.png	2	35	0	451.914372330019	452.014354559467	0.0999822294488695	stim04_sf1_pattern2_cont1_shape1.png	1	2	1	1	1	3	0	0	0	0	0	0	0	0	0	0	0	0	1	9
327.26513671875	0.10004469029991	670239	368	2	stim02_sf1_pattern1_cont2_shape1.png	2	36	0	452.414366171906	452.514410862206	0.10004469029991	stim02_sf1_pattern1_cont2_shape1.png	1	1	2	1	1	4	0	0	0	0	0	0	0	0	0	0	0	0	1	9
327.76513671875	0.0999397091491119	671263	369	12	stim12_sf2_pattern2_cont1_shape1.png	2	37	0	452.914394909763	453.014334618912	0.0999397091491119	stim12_sf2_pattern2_cont1_shape1.png	2	2	1	1	1	2	0	0	0	0	0	0	0	0	0	0	0	0	1	9
328.26513671875	0.0999754848489829	672287	370	13	stim13_sf2_pattern2_cont1_shape2.png	2	38	0	453.414351216492	453.514326701341	0.0999754848489829	stim13_sf2_pattern2_cont1_shape2.png	2	2	1	2	1	2	0	0	0	0	0	0	0	0	0	0	0	0	1	9
328.76513671875	0.099986921342861	673311	371	10	stim10_sf2_pattern1_cont2_shape1.png	2	39	0	453.914317786739	454.014304708082	0.099986921342861	stim10_sf2_pattern1_cont2_shape1.png	2	1	2	1	1	1	0	0	0	0	0	0	0	0	0	0	0	0	1	9
329.26513671875	0.100010967304115	674335	372	11	stim11_sf2_pattern1_cont2_shape2.png	2	40	0	454.414328343504	454.514339310808	0.100010967304115	stim11_sf2_pattern1_cont2_shape2.png	2	1	2	2	1	1	0	0	0	0	0	0	0	0	0	0	0	0	1	9
329.76513671875	0.0999244604900014	675359	373	9	stim09_sf2_pattern1_cont1_shape2.png	2	41	0	454.914363825959	455.014288286449	0.0999244604900014	stim09_sf2_pattern1_cont1_shape2.png	2	1	1	2	1	1	0	0	0	0	0	0	0	0	0	0	0	0	1	9
330.26513671875	0.100039118673521	676383	374	6	stim06_sf1_pattern2_cont2_shape1.png	2	42	0	455.414279958337	455.51431907701	0.100039118673521	stim06_sf1_pattern2_cont2_shape1.png	1	2	2	1	1	3	0	0	0	0	0	0	0	0	0	0	0	0	1	9
330.76513671875	0.099990147020435	677407	375	8	stim08_sf2_pattern1_cont1_shape1.png	2	43	0	455.91426412319	456.014254270211	0.099990147020435	stim08_sf2_pattern1_cont1_shape1.png	2	1	1	1	1	1	0	0	0	0	0	0	0	0	0	0	0	0	1	9
331.26513671875	0.0999265131940774	678431	376	4	stim04_sf1_pattern2_cont1_shape1.png	2	44	0	456.414317493496	456.51424400669	0.0999265131940774	stim04_sf1_pattern2_cont1_shape1.png	1	2	1	1	1	3	0	0	0	0	0	0	0	0	0	0	0	0	1	9
331.76513671875	0.0999549578082224	679455	377	15	stim15_sf2_pattern2_cont2_shape2.png	2	45	0	456.914288755639	457.014243713447	0.0999549578082224	stim15_sf2_pattern2_cont2_shape2.png	2	2	2	2	1	2	0	0	0	0	0	0	0	0	0	0	0	0	1	9
332.26513671875	0.100006568653043	680479	378	0	stim00_sf1_pattern1_cont1_shape1.png	2	46	0	457.414228933978	457.514235502631	0.100006568653043	stim00_sf1_pattern1_cont1_shape1.png	1	1	1	1	1	4	0	0	0	0	0	0	0	0	0	0	0	0	1	9
332.76513671875	0.100027975424382	681503	379	3	stim03_sf1_pattern1_cont2_shape2.png	2	47	0	457.9142257083	458.014253683725	0.100027975424382	stim03_sf1_pattern1_cont2_shape2.png	1	1	2	2	1	4	0	0	0	0	0	0	0	0	0	0	0	0	1	9
333.26513671875	0.100043517324593	682527	380	1	stim01_sf1_pattern1_cont1_shape2.png	2	48	0	458.414196383957	458.514239901282	0.100043517324593	stim01_sf1_pattern1_cont1_shape2.png	1	1	1	2	1	4	0	0	0	0	0	0	0	0	0	0	0	0	1	9
333.76513671875	0.099997478106161	683551	381	7	stim07_sf1_pattern2_cont2_shape2.png	2	49	0	458.914249461019	459.014246939125	0.099997478106161	stim07_sf1_pattern2_cont2_shape2.png	1	2	2	2	1	3	0	0	0	0	0	0	0	0	0	0	0	0	1	9
334.26513671875	0.100007741626541	684575	382	14	stim14_sf2_pattern2_cont2_shape1.png	2	50	0	459.414221602892	459.514229344519	0.100007741626541	stim14_sf2_pattern2_cont2_shape1.png	2	2	2	1	1	2	0	0	0	0	0	0	0	0	0	0	0	0	1	9
334.76513671875	0.0999886808040173	685599	383	5	stim05_sf1_pattern2_cont1_shape2.png	2	51	0	459.914231866413	460.014220547217	0.0999886808040173	stim05_sf1_pattern2_cont1_shape2.png	1	2	1	2	1	3	0	0	0	0	0	0	0	0	0	0	0	0	1	9
335.26513671875	0.0999957186468237	686623	384	1	stim01_sf1_pattern1_cont1_shape2.png	2	52	0	460.414213392076	460.514209110723	0.0999957186468237	stim01_sf1_pattern1_cont1_shape2.png	1	1	1	2	1	4	0	0	0	0	0	0	0	0	0	0	0	0	1	9
335.76513671875	0.099984868638785	687647	385	0	stim00_sf1_pattern1_cont1_shape1.png	2	53	0	460.914209579911	461.014194448549	0.099984868638785	stim00_sf1_pattern1_cont1_shape1.png	1	1	1	1	1	4	0	0	0	0	0	0	0	0	0	0	0	0	1	9
336.26513671875	0.100030907859036	688671	386	13	stim13_sf2_pattern2_cont1_shape2.png	2	54	0	461.414134802835	461.514165710694	0.100030907859036	stim13_sf2_pattern2_cont1_shape2.png	2	2	1	2	1	2	0	0	0	0	0	0	0	0	0	0	0	0	1	9
336.76513671875	0.0999687402490963	689695	387	11	stim11_sf2_pattern1_cont2_shape2.png	2	55	0	461.914168819074	462.014137559323	0.0999687402490963	stim11_sf2_pattern1_cont2_shape2.png	2	1	2	2	1	1	0	0	0	0	0	0	0	0	0	0	0	0	1	9
337.26513671875	0.100001290271393	690719	388	7	stim07_sf1_pattern2_cont2_shape2.png	2	56	0	462.414138321756	462.514139612027	0.100001290271393	stim07_sf1_pattern2_cont2_shape2.png	1	2	2	2	1	3	0	0	0	0	0	0	0	0	0	0	0	0	1	9
337.76513671875	0.0999898537775152	691743	389	9	stim09_sf2_pattern1_cont1_shape2.png	2	57	0	462.914139201486	463.014129055264	0.0999898537775152	stim09_sf2_pattern1_cont1_shape2.png	2	1	1	2	1	1	0	0	0	0	0	0	0	0	0	0	0	0	1	9
338.26513671875	0.0999930794550892	692767	390	5	stim05_sf1_pattern2_cont1_shape2.png	2	58	0	463.414130697427	463.514123776882	0.0999930794550892	stim05_sf1_pattern2_cont1_shape2.png	1	2	1	2	1	3	0	0	0	0	0	0	0	0	0	0	0	0	1	9
338.76513671875	0.100019764608078	693791	391	12	stim12_sf2_pattern2_cont1_shape1.png	2	59	0	463.914109290656	464.014129055264	0.100019764608078	stim12_sf2_pattern2_cont1_shape1.png	2	2	1	1	1	2	0	0	0	0	0	0	0	0	0	0	0	0	1	9
339.26513671875	0.0999857483693631	694815	392	8	stim08_sf2_pattern1_cont1_shape1.png	2	60	0	464.414098147405	464.514083895774	0.0999857483693631	stim08_sf2_pattern1_cont1_shape1.png	2	1	1	1	1	1	0	0	0	0	0	0	0	0	0	0	0	0	1	9
339.76513671875	0.0999754848489829	695839	393	4	stim04_sf1_pattern2_cont1_shape1.png	2	61	0	464.914070289278	465.014045774127	0.0999754848489829	stim04_sf1_pattern2_cont1_shape1.png	1	2	1	1	1	3	0	0	0	0	0	0	0	0	0	0	0	0	1	9
340.2646484375	0.0999819362041308	696862	394	3	stim03_sf1_pattern1_cont2_shape2.png	2	62	0	465.414055040621	465.514036976825	0.0999819362041308	stim03_sf1_pattern1_cont2_shape2.png	1	1	2	2	1	4	0	0	0	0	0	0	0	0	0	0	0	0	1	9
340.7646484375	0.0999658078162611	697886	395	2	stim02_sf1_pattern1_cont2_shape1.png	2	63	0	465.914042137909	466.014007945725	0.0999658078162611	stim02_sf1_pattern1_cont2_shape1.png	1	1	2	1	1	4	0	0	0	0	0	0	0	0	0	0	0	0	1	9
341.2646484375	0.0999965983755828	698910	396	6	stim06_sf1_pattern2_cont2_shape1.png	2	64	0	466.414017798705	466.51401439708	0.0999965983755828	stim06_sf1_pattern2_cont2_shape1.png	1	2	2	1	1	3	0	0	0	0	0	0	0	0	0	0	0	0	1	9
341.7646484375	0.100001290271393	699934	397	10	stim10_sf2_pattern1_cont2_shape1.png	2	65	0	466.91400460275	467.014005893021	0.100001290271393	stim10_sf2_pattern1_cont2_shape1.png	2	1	2	1	1	1	0	0	0	0	0	0	0	0	0	0	0	0	1	9
342.2646484375	0.100017125416343	700958	398	15	stim15_sf2_pattern2_cont2_shape2.png	2	66	0	467.413969413537	467.513986538954	0.100017125416343	stim15_sf2_pattern2_cont2_shape2.png	2	2	2	2	1	2	0	0	0	0	0	0	0	0	0	0	0	0	1	9
342.7646484375	0.0999851618817047	701982	399	14	stim14_sf2_pattern2_cont2_shape1.png	2	67	0	467.913986421656	468.013971583538	0.0999851618817047	stim14_sf2_pattern2_cont2_shape1.png	2	2	2	1	1	2	0	0	0	0	0	0	0	0	0	0	0	0	1	9
343.2646484375	0.100007741626541	703006	400	4	stim04_sf1_pattern2_cont1_shape1.png	2	68	0	468.41396618786	468.513973929486	0.100007741626541	stim04_sf1_pattern2_cont1_shape1.png	1	2	1	1	1	3	0	0	0	0	0	0	0	0	0	0	0	0	1	9
343.7646484375	0.100008621357119	704030	401	11	stim11_sf2_pattern1_cont2_shape2.png	2	69	0	468.913950352713	469.01395897407	0.100008621357119	stim11_sf2_pattern1_cont2_shape2.png	2	1	2	2	1	1	0	0	0	0	0	0	0	0	0	0	0	0	1	9
344.2646484375	0.0999854551264434	705054	402	12	stim12_sf2_pattern2_cont1_shape1.png	2	70	0	469.413960616233	469.51394607136	0.0999854551264434	stim12_sf2_pattern2_cont1_shape1.png	2	2	1	1	1	2	0	0	0	0	0	0	0	0	0	0	0	0	1	9
344.7646484375	0.0999766578224808	706078	403	2	stim02_sf1_pattern1_cont2_shape1.png	2	71	0	469.913963548668	470.013940206491	0.0999766578224808	stim02_sf1_pattern1_cont2_shape1.png	1	1	2	1	1	4	0	0	0	0	0	0	0	0	0	0	0	0	1	9
345.2646484375	0.100005395679545	707102	404	15	stim15_sf2_pattern2_cont2_shape2.png	2	72	0	470.413935983785	470.513941379464	0.100005395679545	stim15_sf2_pattern2_cont2_shape2.png	2	2	2	2	1	2	0	0	0	0	0	0	0	0	0	0	0	0	1	9
345.7646484375	0.100001876759052	708126	405	0	stim00_sf1_pattern1_cont1_shape1.png	2	73	0	470.913915163501	471.01391704026	0.100001876759052	stim00_sf1_pattern1_cont1_shape1.png	1	1	1	1	1	4	0	0	0	0	0	0	0	0	0	0	0	0	1	9
346.2646484375	0.099969033493835	709150	406	9	stim09_sf2_pattern1_cont1_shape2.png	2	74	0	471.413906952685	471.513875986178	0.099969033493835	stim09_sf2_pattern1_cont1_shape2.png	2	1	1	2	1	1	0	0	0	0	0	0	0	0	0	0	0	0	1	9
346.7646484375	0.0999432280696055	710174	407	14	stim14_sf2_pattern2_cont2_shape1.png	2	75	0	471.913916629719	472.013859857789	0.0999432280696055	stim14_sf2_pattern2_cont2_shape1.png	2	2	2	1	1	2	0	0	0	0	0	0	0	0	0	0	0	0	1	9
347.2646484375	0.100000703783735	711198	408	8	stim08_sf2_pattern1_cont1_shape1.png	2	76	0	472.413876748611	472.513877452395	0.100000703783735	stim08_sf2_pattern1_cont1_shape1.png	2	1	1	1	1	1	0	0	0	0	0	0	0	0	0	0	0	0	1	9
347.7646484375	0.100027975424382	712222	409	6	stim06_sf1_pattern2_cont2_shape1.png	2	77	0	472.913833348583	473.013861324007	0.100027975424382	stim06_sf1_pattern2_cont2_shape1.png	1	2	2	1	1	3	0	0	0	0	0	0	0	0	0	0	0	0	1	9
348.2646484375	0.0999971848632413	713246	410	5	stim05_sf1_pattern2_cont1_shape2.png	2	78	0	473.413827776956	473.513824961819	0.0999971848632413	stim05_sf1_pattern2_cont1_shape2.png	1	2	1	2	1	3	0	0	0	0	0	0	0	0	0	0	0	0	1	9
348.7646484375	0.0999965983755828	714270	411	3	stim03_sf1_pattern1_cont2_shape2.png	2	79	0	473.913834228313	474.013830826689	0.0999965983755828	stim03_sf1_pattern1_cont2_shape2.png	1	1	2	2	1	4	0	0	0	0	0	0	0	0	0	0	0	0	1	9
349.2646484375	0.0999625821368681	715294	412	1	stim01_sf1_pattern1_cont1_shape2.png	2	80	0	474.413836281017	474.513798863154	0.0999625821368681	stim01_sf1_pattern1_cont1_shape2.png	1	1	1	2	1	4	0	0	0	0	0	0	0	0	0	0	0	0	1	9
349.7646484375	0.0999965983755828	716318	413	10	stim10_sf2_pattern1_cont2_shape1.png	2	81	0	474.913824844523	475.013821442899	0.0999965983755828	stim10_sf2_pattern1_cont2_shape1.png	2	1	2	1	1	1	0	0	0	0	0	0	0	0	0	0	0	0	1	9
350.2646484375	0.0999675672755984	717342	414	7	stim07_sf1_pattern2_cont2_shape2.png	2	82	0	475.413796693152	475.513764260428	0.0999675672755984	stim07_sf1_pattern2_cont2_shape2.png	1	2	2	2	1	3	0	0	0	0	0	0	0	0	0	0	0	0	1	9
350.7646484375	0.100033840291871	718366	415	13	stim13_sf2_pattern2_cont1_shape2.png	2	83	0	475.913759744481	476.013793584772	0.100033840291871	stim13_sf2_pattern2_cont1_shape2.png	2	2	1	2	1	2	0	0	0	0	0	0	0	0	0	0	0	0	1	9
351.2646484375	0.0999860416122829	719390	416	8	stim08_sf2_pattern1_cont1_shape1.png	2	84	0	476.413775579626	476.513761621238	0.0999860416122829	stim08_sf2_pattern1_cont1_shape1.png	2	1	1	1	1	1	0	0	0	0	0	0	0	0	0	0	0	0	1	9
351.7646484375	0.0999699132244132	720414	417	3	stim03_sf1_pattern1_cont2_shape2.png	2	85	0	476.913760330966	477.013730244191	0.0999699132244132	stim03_sf1_pattern1_cont2_shape2.png	1	1	2	2	1	4	0	0	0	0	0	0	0	0	0	0	0	0	1	9
352.2646484375	0.10002387001623	721438	418	6	stim06_sf1_pattern2_cont2_shape1.png	2	86	0	477.413730713379	477.513754583395	0.10002387001623	stim06_sf1_pattern2_cont2_shape1.png	1	2	2	1	1	3	0	0	0	0	0	0	0	0	0	0	0	0	1	9
352.7646484375	0.0999971848632413	722462	419	0	stim00_sf1_pattern1_cont1_shape1.png	2	87	0	477.913743616091	478.013740800954	0.0999971848632413	stim00_sf1_pattern1_cont1_shape1.png	1	1	1	1	1	4	0	0	0	0	0	0	0	0	0	0	0	0	1	9
353.2646484375	0.100024456502069	723486	420	4	stim04_sf1_pattern2_cont1_shape1.png	2	88	0	478.413697870115	478.513722326617	0.100024456502069	stim04_sf1_pattern2_cont1_shape1.png	1	2	1	1	1	3	0	0	0	0	0	0	0	0	0	0	0	0	1	9
353.7646484375	0.099992199724511	724510	421	15	stim15_sf2_pattern2_cont2_shape2.png	2	89	0	478.913709893095	479.01370209282	0.099992199724511	stim15_sf2_pattern2_cont2_shape2.png	2	2	2	2	1	2	0	0	0	0	0	0	0	0	0	0	0	0	1	9
354.2646484375	0.100004222706048	725534	422	1	stim01_sf1_pattern1_cont1_shape2.png	2	90	0	479.413680861995	479.513685084701	0.100004222706048	stim01_sf1_pattern1_cont1_shape2.png	1	1	1	2	1	4	0	0	0	0	0	0	0	0	0	0	0	0	1	9
354.7646484375	0.100052021385636	726558	423	14	stim14_sf2_pattern2_cont2_shape1.png	2	91	0	479.913638928183	480.013690949569	0.100052021385636	stim14_sf2_pattern2_cont2_shape1.png	2	2	2	1	1	2	0	0	0	0	0	0	0	0	0	0	0	0	1	9
355.2646484375	0.0999854551264434	727582	424	2	stim02_sf1_pattern1_cont2_shape1.png	2	92	0	480.413632770071	480.513618225197	0.0999854551264434	stim02_sf1_pattern1_cont2_shape1.png	1	1	2	1	1	4	0	0	0	0	0	0	0	0	0	0	0	0	1	9
355.7646484375	0.0999992375654983	728606	425	7	stim07_sf1_pattern2_cont2_shape2.png	2	93	0	480.913640101158	481.013639338724	0.0999992375654983	stim07_sf1_pattern2_cont2_shape2.png	1	2	2	2	1	3	0	0	0	0	0	0	0	0	0	0	0	0	1	9
356.2646484375	0.0999740186325653	729630	426	12	stim12_sf2_pattern2_cont1_shape1.png	2	94	0	481.413625145742	481.513599164375	0.0999740186325653	stim12_sf2_pattern2_cont1_shape1.png	2	2	1	1	1	2	0	0	0	0	0	0	0	0	0	0	0	0	1	9
356.7646484375	0.0999907335080934	730654	427	9	stim09_sf2_pattern1_cont1_shape2.png	2	95	0	481.913604325458	482.013595058967	0.0999907335080934	stim09_sf2_pattern1_cont1_shape2.png	2	1	1	2	1	1	0	0	0	0	0	0	0	0	0	0	0	0	1	9
357.2646484375	0.0999734321449068	731678	428	11	stim11_sf2_pattern1_cont2_shape2.png	2	96	0	482.413598167346	482.513571599491	0.0999734321449068	stim11_sf2_pattern1_cont2_shape2.png	2	1	2	2	1	1	0	0	0	0	0	0	0	0	0	0	0	0	1	9
357.76416015625	0.100002756487811	732701	429	5	stim05_sf1_pattern2_cont1_shape2.png	2	97	0	482.913577640305	483.013580396793	0.100002756487811	stim05_sf1_pattern2_cont1_shape2.png	1	2	1	2	1	3	0	0	0	0	0	0	0	0	0	0	0	0	1	9
358.26416015625	0.100010380816457	733725	430	13	stim13_sf2_pattern2_cont1_shape2.png	2	98	0	483.413565910569	483.513576291385	0.100010380816457	stim13_sf2_pattern2_cont1_shape2.png	2	2	1	2	1	2	0	0	0	0	0	0	0	0	0	0	0	0	1	9
358.76416015625	0.100010087575356	734749	431	10	stim10_sf2_pattern1_cont2_shape1.png	2	99	0	483.913559165969	484.013569253544	0.100010087575356	stim10_sf2_pattern1_cont2_shape1.png	2	1	2	1	1	1	0	0	0	0	0	0	0	0	0	0	0	0	1	9
359.26416015625	0.0999980645920004	735773	432	6	stim06_sf1_pattern2_cont2_shape1.png	2	100	0	484.413559752456	484.513557817048	0.0999980645920004	stim06_sf1_pattern2_cont2_shape1.png	1	2	2	1	1	3	0	0	0	0	0	0	0	0	0	0	0	0	1	9
359.76416015625	0.099979590257135	736797	433	5	stim05_sf1_pattern2_cont1_shape2.png	2	101	0	484.91353541325	485.013515003508	0.099979590257135	stim05_sf1_pattern2_cont1_shape2.png	1	2	1	2	1	3	0	0	0	0	0	0	0	0	0	0	0	0	1	9
360.26416015625	0.10000803487128	737821	434	10	stim10_sf2_pattern1_cont2_shape1.png	2	102	1	485.413533360546	485.513541395418	0.10000803487128	stim10_sf2_pattern1_cont2_shape1.png	2	1	2	1	1	1	0	0	0	0	0	0	0	0	0	0	0	0	1	9
360.76416015625	0.0999977713508997	738845	435	10	stim10_sf2_pattern1_cont2_shape1.png	2	103	1	485.913518111887	486.013515883238	0.0999977713508997	stim10_sf2_pattern1_cont2_shape1.png	2	1	2	1	1	1	0	0	0	0	0	0	0	0	0	0	0	0	1	9
361.26416015625	0.0999593564592942	739869	436	15	stim15_sf2_pattern2_cont2_shape2.png	2	104	2	486.413516938914	486.513476295373	0.0999593564592942	stim15_sf2_pattern2_cont2_shape2.png	2	2	2	2	1	2	0	0	0	0	0	0	0	0	0	0	0	0	1	9
361.76416015625	0.0999845753940463	740893	437	0	stim00_sf1_pattern1_cont1_shape1.png	2	105	2	486.913468846991	487.013453422385	0.0999845753940463	stim00_sf1_pattern1_cont1_shape1.png	1	1	1	1	1	4	0	0	0	0	0	0	0	0	0	0	0	0	1	9
362.26416015625	0.0999983578367392	741917	438	10	stim10_sf2_pattern1_cont2_shape1.png	2	106	0	487.413488201057	487.513486558893	0.0999983578367392	stim10_sf2_pattern1_cont2_shape1.png	2	1	2	1	1	1	0	0	0	0	0	0	0	0	0	0	0	0	1	9
362.76416015625	0.100017418661082	742941	439	2	stim02_sf1_pattern1_cont2_shape1.png	2	107	0	487.913440402377	488.013457821038	0.100017418661082	stim02_sf1_pattern1_cont2_shape1.png	1	1	2	1	1	4	0	0	0	0	0	0	0	0	0	0	0	0	1	9
363.26416015625	0.0999945456715068	743965	440	9	stim09_sf2_pattern1_cont1_shape2.png	2	108	0	488.413445387516	488.513439933187	0.0999945456715068	stim09_sf2_pattern1_cont1_shape2.png	2	1	1	2	1	1	0	0	0	0	0	0	0	0	0	0	0	0	1	9
363.76416015625	0.0999957186468237	744989	441	15	stim15_sf2_pattern2_cont2_shape2.png	2	109	0	488.913414890198	489.013410608844	0.0999957186468237	stim15_sf2_pattern2_cont2_shape2.png	2	2	2	2	1	2	0	0	0	0	0	0	0	0	0	0	0	0	1	9
364.26416015625	0.0999927862121694	746013	442	3	stim03_sf1_pattern1_cont2_shape2.png	2	110	0	489.413399055053	489.513391841265	0.0999927862121694	stim03_sf1_pattern1_cont2_shape2.png	1	1	2	2	1	4	0	0	0	0	0	0	0	0	0	0	0	0	1	9
364.76416015625	0.0999968916203215	747037	443	0	stim00_sf1_pattern1_cont1_shape1.png	2	111	0	489.913406679381	490.013403571002	0.0999968916203215	stim00_sf1_pattern1_cont1_shape1.png	1	1	1	1	1	4	0	0	0	0	0	0	0	0	0	0	0	0	1	9
365.26416015625	0.0999534915899858	748061	444	1	stim01_sf1_pattern1_cont1_shape2.png	2	112	0	490.413414303712	490.513367795302	0.0999534915899858	stim01_sf1_pattern1_cont1_shape2.png	1	1	1	2	1	4	0	0	0	0	0	0	0	0	0	0	0	0	1	9
365.76416015625	0.100018005146921	749085	445	8	stim08_sf2_pattern1_cont1_shape1.png	2	113	0	490.913361519893	491.01337952504	0.100018005146921	stim08_sf2_pattern1_cont1_shape1.png	2	1	1	1	1	1	0	0	0	0	0	0	0	0	0	0	0	0	1	9
366.26416015625	0.100003342975469	750109	446	14	stim14_sf2_pattern2_cont2_shape1.png	2	114	0	491.413368557734	491.51337190071	0.100003342975469	stim14_sf2_pattern2_cont2_shape1.png	2	2	2	1	1	2	0	0	0	0	0	0	0	0	0	0	0	0	1	9
366.76416015625	0.0999622888939484	751133	447	4	stim04_sf1_pattern2_cont1_shape1.png	2	115	0	491.913368850979	492.013331139873	0.0999622888939484	stim04_sf1_pattern2_cont1_shape1.png	1	2	1	1	1	3	0	0	0	0	0	0	0	0	0	0	0	0	1	9
367.26416015625	0.0999602361898724	752157	448	7	stim07_sf1_pattern2_cont2_shape2.png	2	116	0	492.413352136104	492.513312372294	0.0999602361898724	stim07_sf1_pattern2_cont2_shape2.png	1	2	2	2	1	3	0	0	0	0	0	0	0	0	0	0	0	0	1	9
367.76416015625	0.10000275648963	753181	449	12	stim12_sf2_pattern2_cont1_shape1.png	2	117	0	492.913306683369	493.013309439859	0.10000275648963	stim12_sf2_pattern2_cont1_shape1.png	2	2	1	1	1	2	0	0	0	0	0	0	0	0	0	0	0	0	1	9
368.26416015625	0.099992199724511	754205	450	11	stim11_sf2_pattern1_cont2_shape2.png	2	118	0	493.413294953632	493.513287153357	0.099992199724511	stim11_sf2_pattern1_cont2_shape2.png	2	1	2	2	1	1	0	0	0	0	0	0	0	0	0	0	0	0	1	9
368.76416015625	0.0999704997102526	755229	451	13	stim13_sf2_pattern2_cont1_shape2.png	2	119	0	493.913302871206	494.013273370916	0.0999704997102526	stim13_sf2_pattern2_cont1_shape2.png	2	2	1	2	1	2	0	0	0	0	0	0	0	0	0	0	0	0	1	9
