onset	duration	onsetsample	eventnumber	stimnumber	stimname	blocknumber	trialnumber	istarget	time_stimon	time_stimoff	stimdur	stimfilename	spatial_freq	pattern	contrast	shape	is_fast_stream	category	ppt_1_response	ppt_1_keypressed	ppt_1_rt	ppt_1_correct	ppt_2_response	ppt_2_keypressed	ppt_2_rt	ppt_2_correct	button1	button2	button3	button4	task_part_number	subjectnr
46.04833984375	0.0999915838183369	94307	0	4	stim04_sf1_pattern2_cont1_shape1.png	0	0	0	434.973023641263	435.073015225082	0.0999915838183369	stim04_sf1_pattern2_cont1_shape1.png	1	2	1	1	1	1	0	0	0	0	0	0	0	0	0	0	0	0	1	6
46.556640625	0.0999965690134559	95348	1	7	stim07_sf1_pattern2_cont2_shape2.png	0	1	0	435.481360500889	435.581357069903	0.0999965690134559	stim07_sf1_pattern2_cont2_shape2.png	1	2	2	2	1	3	0	0	0	0	0	0	0	0	0	0	0	0	1	6
47.056640625	0.104546879458212	96372	2	12	stim12_sf2_pattern2_cont1_shape1.png	0	2	0	436.001784993214	436.106331872672	0.104546879458212	stim12_sf2_pattern2_cont1_shape1.png	2	2	1	1	1	2	0	0	0	0	0	0	0	0	0	0	0	0	1	6
47.58154296875	0.0999997947274096	97447	3	9	stim09_sf2_pattern1_cont1_shape2.png	0	3	0	436.506339262491	436.606339057218	0.0999997947274096	stim09_sf2_pattern1_cont1_shape2.png	2	1	1	2	1	2	0	0	0	0	0	0	0	0	0	0	0	0	1	6
48.08154296875	0.0999939297926176	98471	4	1	stim01_sf1_pattern1_cont1_shape2.png	0	4	0	437.006320934566	437.106314864359	0.0999939297926176	stim01_sf1_pattern1_cont1_shape2.png	1	1	1	2	1	1	0	0	0	0	0	0	0	0	0	0	0	0	1	6
48.58154296875	0.100000087973967	99495	5	8	stim08_sf2_pattern1_cont1_shape1.png	0	5	0	437.506322547424	437.606322635398	0.100000087973967	stim08_sf2_pattern1_cont1_shape1.png	2	1	1	1	1	2	0	0	0	0	0	0	0	0	0	0	0	0	1	6
49.08154296875	0.0999754552449303	100519	6	10	stim10_sf2_pattern1_cont2_shape1.png	0	6	0	438.006323573787	438.106299029032	0.0999754552449303	stim10_sf2_pattern1_cont2_shape1.png	2	1	2	1	1	4	0	0	0	0	0	0	0	0	0	0	0	0	1	6
49.58154296875	0.0999244303020532	101543	7	2	stim02_sf1_pattern1_cont2_shape1.png	0	7	0	438.506380610288	438.60630504059	0.0999244303020532	stim02_sf1_pattern1_cont2_shape1.png	1	1	2	1	1	3	0	0	0	0	0	0	0	0	0	0	0	0	1	6
50.08154296875	0.100022374730543	102567	8	15	stim15_sf2_pattern2_cont2_shape2.png	0	8	0	439.006280173262	439.106302547993	0.100022374730543	stim15_sf2_pattern2_cont2_shape2.png	2	2	2	2	1	4	0	0	0	0	0	0	0	0	0	0	0	0	1	6
50.58154296875	0.0999936365442409	103591	9	5	stim05_sf1_pattern2_cont1_shape2.png	0	9	0	439.506293222745	439.606286859289	0.0999936365442409	stim05_sf1_pattern2_cont1_shape2.png	1	2	1	2	1	1	0	0	0	0	0	0	0	0	0	0	0	0	1	6
51.08154296875	0.0999997947274096	104615	10	6	stim06_sf1_pattern2_cont2_shape1.png	0	10	0	440.006279293522	440.10627908825	0.0999997947274096	stim06_sf1_pattern2_cont2_shape1.png	1	2	2	1	1	3	0	0	0	0	0	0	0	0	0	0	0	0	1	6
51.58154296875	0.100006539403694	105639	11	14	stim14_sf2_pattern2_cont2_shape1.png	0	11	0	440.506246889752	440.606253429156	0.100006539403694	stim14_sf2_pattern2_cont2_shape1.png	2	2	2	1	1	4	0	0	0	0	0	0	0	0	0	0	0	0	1	6
52.08154296875	0.0999651916063158	106663	12	11	stim11_sf2_pattern1_cont2_shape2.png	0	12	0	441.006254954038	441.106220145644	0.0999651916063158	stim11_sf2_pattern1_cont2_shape2.png	2	1	2	2	1	4	0	0	0	0	0	0	0	0	0	0	0	0	1	6
52.58154296875	0.0999651916063158	107687	13	3	stim03_sf1_pattern1_cont2_shape2.png	0	13	0	441.506252168194	441.6062173598	0.0999651916063158	stim03_sf1_pattern1_cont2_shape2.png	1	1	2	2	1	3	0	0	0	0	0	0	0	0	0	0	0	0	1	6
53.08154296875	0.0999736957637651	108711	14	13	stim13_sf2_pattern2_cont1_shape2.png	0	14	0	442.006215952215	442.106189647979	0.0999736957637651	stim13_sf2_pattern2_cont1_shape2.png	2	2	1	2	1	2	0	0	0	0	0	0	0	0	0	0	0	0	1	6
53.58154296875	0.0999992082342942	109735	15	0	stim00_sf1_pattern1_cont1_shape1.png	0	15	0	442.506197624291	442.606196832525	0.0999992082342942	stim00_sf1_pattern1_cont1_shape1.png	1	1	1	1	1	1	0	0	0	0	0	0	0	0	0	0	0	0	1	6
54.08154296875	0.100000087975786	110759	16	9	stim09_sf2_pattern1_cont1_shape2.png	0	16	0	443.006197770914	443.10619785889	0.100000087975786	stim09_sf2_pattern1_cont1_shape2.png	2	1	1	2	1	2	0	0	0	0	0	0	0	0	0	0	0	0	1	6
54.58154296875	0.0999901175819105	111783	17	6	stim06_sf1_pattern2_cont2_shape1.png	0	17	0	443.506186480914	443.606176598496	0.0999901175819105	stim06_sf1_pattern2_cont2_shape1.png	1	2	2	1	1	3	0	0	0	0	0	0	0	0	0	0	0	0	1	6
55.08154296875	0.100005659664021	112807	18	11	stim11_sf2_pattern1_cont2_shape2.png	0	18	0	444.006167273248	444.106172932912	0.100005659664021	stim11_sf2_pattern1_cont2_shape2.png	2	1	2	2	1	4	0	0	0	0	0	0	0	0	0	0	0	0	1	6
55.58154296875	0.099994516285733	113831	19	1	stim01_sf1_pattern1_cont1_shape2.png	0	19	0	444.50619498507	444.606189501355	0.099994516285733	stim01_sf1_pattern1_cont1_shape2.png	1	1	1	2	1	1	0	0	0	0	0	0	0	0	0	0	0	0	1	6
56.08154296875	0.0999874783628911	114855	20	7	stim07_sf1_pattern2_cont2_shape2.png	0	20	0	445.006192492472	445.106179970835	0.0999874783628911	stim07_sf1_pattern2_cont2_shape2.png	1	2	2	2	1	3	0	0	0	0	0	0	0	0	0	0	0	0	1	6
56.58154296875	0.100045834473349	115879	21	15	stim15_sf2_pattern2_cont2_shape2.png	0	21	0	445.506174457794	445.606220292268	0.100045834473349	stim15_sf2_pattern2_cont2_shape2.png	2	2	2	2	1	4	0	0	0	0	0	0	0	0	0	0	0	0	1	6
57.08154296875	0.0999936365460599	116903	22	8	stim08_sf2_pattern1_cont1_shape1.png	0	22	0	446.006176950392	446.106170586938	0.0999936365460599	stim08_sf2_pattern1_cont1_shape1.png	2	1	1	1	1	2	0	0	0	0	0	0	0	0	0	0	0	0	1	6
57.58154296875	0.099969883554877	117927	23	4	stim04_sf1_pattern2_cont1_shape1.png	0	23	0	446.506185014679	446.606154898234	0.099969883554877	stim04_sf1_pattern2_cont1_shape1.png	1	2	1	1	1	1	0	0	0	0	0	0	0	0	0	0	0	0	1	6
58.08154296875	0.100007712391744	118951	24	3	stim03_sf1_pattern1_cont2_shape2.png	0	24	0	447.006146745973	447.106154458364	0.100007712391744	stim03_sf1_pattern1_cont2_shape2.png	1	1	2	2	1	3	0	0	0	0	0	0	0	0	0	0	0	0	1	6
58.58154296875	0.0999980352462444	119975	25	0	stim00_sf1_pattern1_cont1_shape1.png	0	25	0	447.506157742728	447.606155777974	0.0999980352462444	stim00_sf1_pattern1_cont1_shape1.png	1	1	1	1	1	1	0	0	0	0	0	0	0	0	0	0	0	0	1	6
59.08154296875	0.0999921703096334	120999	26	14	stim14_sf2_pattern2_cont2_shape1.png	0	26	0	448.006157009611	448.106149179921	0.0999921703096334	stim14_sf2_pattern2_cont2_shape1.png	2	2	2	1	1	4	0	0	0	0	0	0	0	0	0	0	0	0	1	6
59.58154296875	0.10000214070169	122023	27	13	stim13_sf2_pattern2_cont1_shape2.png	0	27	0	448.506137508699	448.606139649401	0.10000214070169	stim13_sf2_pattern2_cont1_shape2.png	2	2	1	2	1	2	0	0	0	0	0	0	0	0	0	0	0	0	1	6
60.0810546875	0.0999977419996867	123046	28	5	stim05_sf1_pattern2_cont1_shape2.png	0	28	0	449.00613325662	449.10613099862	0.0999977419996867	stim05_sf1_pattern2_cont1_shape2.png	1	2	1	2	1	1	0	0	0	0	0	0	0	0	0	0	0	0	1	6
60.5810546875	0.0999980352462444	124070	29	12	stim12_sf2_pattern2_cont1_shape1.png	0	29	0	449.506127538309	449.606125573555	0.0999980352462444	stim12_sf2_pattern2_cont1_shape1.png	2	2	1	1	1	2	0	0	0	0	0	0	0	0	0	0	0	0	1	6
61.0810546875	0.0999997947274096	125094	30	10	stim10_sf2_pattern1_cont2_shape1.png	0	30	0	450.006100706227	450.106100500954	0.0999997947274096	stim10_sf2_pattern1_cont2_shape1.png	2	1	2	1	1	4	0	0	0	0	0	0	0	0	0	0	0	0	1	6
61.5810546875	0.0999992082324752	126118	31	2	stim02_sf1_pattern1_cont2_shape1.png	0	31	0	450.506111116489	450.606110324721	0.0999992082324752	stim02_sf1_pattern1_cont2_shape1.png	1	1	2	1	1	3	0	0	0	0	0	0	0	0	0	0	0	0	1	6
62.0810546875	0.0999880648560065	127142	32	5	stim05_sf1_pattern2_cont1_shape2.png	0	32	1	451.006112142852	451.106100207708	0.0999880648560065	stim05_sf1_pattern2_cont1_shape2.png	1	2	1	2	1	1	0	0	0	0	0	0	0	0	0	0	0	0	1	6
62.5810546875	0.0999968622581946	128166	33	5	stim05_sf1_pattern2_cont1_shape2.png	0	33	1	451.506094987915	451.606091850173	0.0999968622581946	stim05_sf1_pattern2_cont1_shape2.png	1	2	1	2	1	1	0	0	0	0	0	0	0	0	0	0	0	0	1	6
63.0810546875	0.100000087973967	129190	34	10	stim10_sf2_pattern1_cont2_shape1.png	0	34	2	452.006066103106	452.10606619108	0.100000087973967	stim10_sf2_pattern1_cont2_shape1.png	2	1	2	1	1	4	0	0	0	0	0	0	0	0	0	0	0	0	1	6
63.5810546875	0.100012111091928	130214	35	9	stim09_sf2_pattern1_cont1_shape2.png	0	35	2	452.506063903755	452.606076014847	0.100012111091928	stim09_sf2_pattern1_cont1_shape2.png	2	1	1	2	1	2	0	0	0	0	0	0	0	0	0	0	0	0	1	6
64.0810546875	0.100023547716773	131238	36	11	stim11_sf2_pattern1_cont2_shape2.png	0	36	0	453.006028274271	453.106051821987	0.100023547716773	stim11_sf2_pattern1_cont2_shape2.png	2	1	2	2	1	4	0	0	0	0	0	0	0	0	0	0	0	0	1	6
64.5810546875	0.0999992082342942	132262	37	1	stim01_sf1_pattern1_cont1_shape2.png	0	37	0	453.506059211806	453.60605842004	0.0999992082342942	stim01_sf1_pattern1_cont1_shape2.png	1	1	1	2	1	1	0	0	0	0	0	0	0	0	0	0	0	0	1	6
65.0810546875	0.0999995014808519	133286	38	10	stim10_sf2_pattern1_cont2_shape1.png	0	38	0	454.006033552712	454.106033054193	0.0999995014808519	stim10_sf2_pattern1_cont2_shape1.png	2	1	2	1	1	4	0	0	0	0	0	0	0	0	0	0	0	0	1	6
65.5810546875	0.0999977419996867	134310	39	5	stim05_sf1_pattern2_cont1_shape2.png	0	39	0	454.506043962972	454.606041704972	0.0999977419996867	stim05_sf1_pattern2_cont1_shape2.png	1	2	1	2	1	1	0	0	0	0	0	0	0	0	0	0	0	0	1	6
66.0810546875	0.100018269275097	135334	40	9	stim09_sf2_pattern1_cont1_shape2.png	0	40	0	455.00602006336	455.106038332635	0.100018269275097	stim09_sf2_pattern1_cont1_shape2.png	2	1	1	2	1	2	0	0	0	0	0	0	0	0	0	0	0	0	1	6
66.5810546875	0.0999695903083193	136358	41	6	stim06_sf1_pattern2_cont2_shape1.png	0	41	0	455.506034285829	455.606003876137	0.0999695903083193	stim06_sf1_pattern2_cont2_shape1.png	1	2	2	1	1	3	0	0	0	0	0	0	0	0	0	0	0	0	1	6
67.0810546875	0.100001260962017	137382	42	12	stim12_sf2_pattern2_cont1_shape1.png	0	42	0	456.005977542574	456.105978803536	0.100001260962017	stim12_sf2_pattern2_cont1_shape1.png	2	2	1	1	1	2	0	0	0	0	0	0	0	0	0	0	0	0	1	6
67.5810546875	0.0999904108302871	138406	43	14	stim14_sf2_pattern2_cont2_shape1.png	0	43	0	456.505980621667	456.605971032497	0.0999904108302871	stim14_sf2_pattern2_cont2_shape1.png	2	2	2	1	1	4	0	0	0	0	0	0	0	0	0	0	0	0	1	6
68.0810546875	0.0999886513491219	139430	44	2	stim02_sf1_pattern1_cont2_shape1.png	0	44	0	457.005963173482	457.105951824831	0.0999886513491219	stim02_sf1_pattern1_cont2_shape1.png	1	1	2	1	1	3	0	0	0	0	0	0	0	0	0	0	0	0	1	6
68.5810546875	0.100001260962017	140454	45	4	stim04_sf1_pattern2_cont1_shape1.png	0	45	0	457.505952176727	457.605953437689	0.100001260962017	stim04_sf1_pattern2_cont1_shape1.png	1	2	1	1	1	1	0	0	0	0	0	0	0	0	0	0	0	0	1	6
69.0810546875	0.0999857188817259	141478	46	3	stim03_sf1_pattern1_cont2_shape2.png	0	46	0	458.0059432327	458.105928951582	0.0999857188817259	stim03_sf1_pattern1_cont2_shape2.png	1	1	2	2	1	3	0	0	0	0	0	0	0	0	0	0	0	0	1	6
69.5810546875	0.100028532913711	142502	47	8	stim08_sf2_pattern1_cont1_shape1.png	0	47	0	458.505935754907	458.605964287821	0.100028532913711	stim08_sf2_pattern1_cont1_shape1.png	2	1	1	1	1	2	0	0	0	0	0	0	0	0	0	0	0	0	1	6
70.0810546875	0.100006832650251	143526	48	15	stim15_sf2_pattern2_cont2_shape2.png	0	48	0	459.005929743349	459.105936575999	0.100006832650251	stim15_sf2_pattern2_cont2_shape2.png	2	2	2	2	1	4	0	0	0	0	0	0	0	0	0	0	0	0	1	6
70.5810546875	0.100008298884859	144550	49	7	stim07_sf1_pattern2_cont2_shape2.png	0	49	0	459.505936048154	459.605944347039	0.100008298884859	stim07_sf1_pattern2_cont2_shape2.png	1	2	2	2	1	3	0	0	0	0	0	0	0	0	0	0	0	0	1	6
71.0810546875	0.10000214070169	145574	50	0	stim00_sf1_pattern1_cont1_shape1.png	0	50	0	460.005940886726	460.105943027427	0.10000214070169	stim00_sf1_pattern1_cont1_shape1.png	1	1	1	1	1	1	0	0	0	0	0	0	0	0	0	0	0	0	1	6
71.5810546875	0.0999971555065713	146598	51	13	stim13_sf2_pattern2_cont1_shape2.png	0	51	0	460.505928130491	460.605925285998	0.0999971555065713	stim13_sf2_pattern2_cont1_shape2.png	2	2	1	2	1	2	0	0	0	0	0	0	0	0	0	0	0	0	1	6
72.0810546875	0.100026773430727	147622	52	10	stim10_sf2_pattern1_cont2_shape1.png	0	52	0	461.005907163346	461.105933936777	0.100026773430727	stim10_sf2_pattern1_cont2_shape1.png	2	1	2	1	1	4	0	0	0	0	0	0	0	0	0	0	0	0	1	6
72.5810546875	0.0999980352462444	148646	53	7	stim07_sf1_pattern2_cont2_shape2.png	0	53	0	461.505937807635	461.605935842881	0.0999980352462444	stim07_sf1_pattern2_cont2_shape2.png	1	2	2	2	1	3	0	0	0	0	0	0	0	0	0	0	0	0	1	6
73.0810546875	0.0999710565411078	149670	54	2	stim02_sf1_pattern1_cont2_shape1.png	0	54	0	462.005932089323	462.105903145864	0.0999710565411078	stim02_sf1_pattern1_cont2_shape1.png	1	1	2	1	1	3	0	0	0	0	0	0	0	0	0	0	0	0	1	6
73.5810546875	0.100003020441363	150694	55	4	stim04_sf1_pattern2_cont1_shape1.png	0	55	0	462.50591640062	462.605919421061	0.100003020441363	stim04_sf1_pattern2_cont1_shape1.png	1	2	1	1	1	1	0	0	0	0	0	0	0	0	0	0	0	0	1	6
74.0810546875	0.100008298884859	151718	56	11	stim11_sf2_pattern1_cont2_shape2.png	0	56	0	463.005890155031	463.105898453916	0.100008298884859	stim11_sf2_pattern1_cont2_shape2.png	2	1	2	2	1	4	0	0	0	0	0	0	0	0	0	0	0	0	1	6
74.5810546875	0.0999924635580101	152742	57	6	stim06_sf1_pattern2_cont2_shape1.png	0	57	0	463.505902911267	463.605895374825	0.0999924635580101	stim06_sf1_pattern2_cont2_shape1.png	1	2	2	1	1	3	0	0	0	0	0	0	0	0	0	0	0	0	1	6
75.0810546875	0.0999927568045678	153766	58	12	stim12_sf2_pattern2_cont1_shape1.png	0	58	0	464.005874319704	464.105867076509	0.0999927568045678	stim12_sf2_pattern2_cont1_shape1.png	2	2	1	1	1	2	0	0	0	0	0	0	0	0	0	0	0	0	1	6
75.5810546875	0.0999989149859175	154790	59	0	stim00_sf1_pattern1_cont1_shape1.png	0	59	0	464.505879451524	464.60587836651	0.0999989149859175	stim00_sf1_pattern1_cont1_shape1.png	1	1	1	1	1	1	0	0	0	0	0	0	0	0	0	0	0	0	1	6
76.0810546875	0.0999986217393598	155814	60	15	stim15_sf2_pattern2_cont2_shape2.png	0	60	0	465.005864056067	465.105862677807	0.0999986217393598	stim15_sf2_pattern2_cont2_shape2.png	2	2	2	2	1	4	0	0	0	0	0	0	0	0	0	0	0	0	1	6
76.58056640625	0.100036450576226	156837	61	3	stim03_sf1_pattern1_cont2_shape2.png	0	61	0	465.505813764243	465.605850214819	0.100036450576226	stim03_sf1_pattern1_cont2_shape2.png	1	1	2	2	1	3	0	0	0	0	0	0	0	0	0	0	0	0	1	6
77.08056640625	0.0999977419996867	157861	62	8	stim08_sf2_pattern1_cont1_shape1.png	0	62	0	466.005840596325	466.105838338324	0.0999977419996867	stim08_sf2_pattern1_cont1_shape1.png	2	1	1	1	1	2	0	0	0	0	0	0	0	0	0	0	0	0	1	6
77.58056640625	0.0999962757668982	158885	63	9	stim09_sf2_pattern1_cont1_shape2.png	0	63	0	466.505851299831	466.605847575598	0.0999962757668982	stim09_sf2_pattern1_cont1_shape2.png	2	1	1	2	1	2	0	0	0	0	0	0	0	0	0	0	0	0	1	6
78.08056640625	0.100038796550507	159909	64	14	stim14_sf2_pattern2_cont2_shape1.png	0	64	0	467.005800421513	467.105839218064	0.100038796550507	stim14_sf2_pattern2_cont2_shape1.png	2	2	2	1	1	4	0	0	0	0	0	0	0	0	0	0	0	0	1	6
78.58056640625	0.0999942230373563	160933	65	1	stim01_sf1_pattern1_cont1_shape2.png	0	65	0	467.505835757753	467.60582998079	0.0999942230373563	stim01_sf1_pattern1_cont1_shape2.png	1	1	1	2	1	1	0	0	0	0	0	0	0	0	0	0	0	0	1	6
79.08056640625	0.100001847455133	161957	66	5	stim05_sf1_pattern2_cont1_shape2.png	0	66	0	468.005804526969	468.105806374424	0.100001847455133	stim05_sf1_pattern2_cont1_shape2.png	1	2	1	2	1	1	0	0	0	0	0	0	0	0	0	0	0	0	1	6
79.58056640625	0.100003020441363	162981	67	7	stim07_sf1_pattern2_cont2_shape2.png	0	67	1	468.50579939515	468.605802415592	0.100003020441363	stim07_sf1_pattern2_cont2_shape2.png	1	2	2	2	1	3	0	0	0	0	0	0	0	0	0	0	0	0	1	6
80.08056640625	0.1000226679771	164005	68	7	stim07_sf1_pattern2_cont2_shape2.png	0	68	1	469.005766404885	469.105789072863	0.1000226679771	stim07_sf1_pattern2_cont2_shape2.png	1	2	2	2	1	3	0	0	0	0	0	0	0	0	0	0	0	0	1	6
80.58056640625	0.0999995014808519	165029	69	13	stim13_sf2_pattern2_cont1_shape2.png	0	69	2	469.505802034371	469.605801535852	0.0999995014808519	stim13_sf2_pattern2_cont1_shape2.png	2	2	1	2	1	2	0	0	0	0	0	0	0	0	0	0	0	0	1	6
81.08056640625	0.100017389533605	166053	70	10	stim10_sf2_pattern1_cont2_shape1.png	0	70	2	470.005758193976	470.10577558351	0.100017389533605	stim10_sf2_pattern1_cont2_shape1.png	2	1	2	1	1	4	0	0	0	0	0	0	0	0	0	0	0	0	1	6
81.58056640625	0.0999543414745858	167077	71	13	stim13_sf2_pattern2_cont1_shape2.png	0	71	0	470.50578297333	470.605737314805	0.0999543414745858	stim13_sf2_pattern2_cont1_shape2.png	2	2	1	2	1	2	0	0	0	0	0	0	0	0	0	0	0	0	1	6
82.08056640625	0.100015336807701	168101	72	15	stim15_sf2_pattern2_cont2_shape2.png	0	72	0	471.005721831374	471.105737168182	0.100015336807701	stim15_sf2_pattern2_cont2_shape2.png	2	2	2	2	1	4	0	0	0	0	0	0	0	0	0	0	0	0	1	6
82.58056640625	0.0999681240737118	169125	73	5	stim05_sf1_pattern2_cont1_shape2.png	0	73	0	471.505750422935	471.605718547009	0.0999681240737118	stim05_sf1_pattern2_cont1_shape2.png	1	2	1	2	1	1	0	0	0	0	0	0	0	0	0	0	0	0	1	6
83.08056640625	0.0999845458936761	170149	74	11	stim11_sf2_pattern1_cont2_shape2.png	0	74	0	472.005717432672	472.105701978566	0.0999845458936761	stim11_sf2_pattern1_cont2_shape2.png	2	1	2	2	1	4	0	0	0	0	0	0	0	0	0	0	0	0	1	6
83.58056640625	0.0999939297907986	171173	75	4	stim04_sf1_pattern2_cont1_shape1.png	0	75	0	472.505712007607	472.605705937398	0.0999939297907986	stim04_sf1_pattern2_cont1_shape1.png	1	2	1	1	1	1	0	0	0	0	0	0	0	0	0	0	0	0	1	6
84.08056640625	0.100006539403694	172197	76	9	stim09_sf2_pattern1_cont1_shape2.png	0	76	0	473.005690747214	473.105697286617	0.100006539403694	stim09_sf2_pattern1_cont1_shape2.png	2	1	1	2	1	2	0	0	0	0	0	0	0	0	0	0	0	0	1	6
84.58056640625	0.0999933432976832	173221	77	3	stim03_sf1_pattern1_cont2_shape2.png	0	77	0	473.50569617228	473.605689515578	0.0999933432976832	stim03_sf1_pattern1_cont2_shape2.png	1	1	2	2	1	3	0	0	0	0	0	0	0	0	0	0	0	0	1	6
85.08056640625	0.0999933432976832	174245	78	1	stim01_sf1_pattern1_cont1_shape2.png	0	78	0	474.005676964614	474.105670307912	0.0999933432976832	stim01_sf1_pattern1_cont1_shape2.png	1	1	1	2	1	1	0	0	0	0	0	0	0	0	0	0	0	0	1	6
85.58056640625	0.0999821999193955	175269	79	10	stim10_sf2_pattern1_cont2_shape1.png	0	79	0	474.505707315659	474.605689515578	0.0999821999193955	stim10_sf2_pattern1_cont2_shape1.png	2	1	2	1	1	4	0	0	0	0	0	0	0	0	0	0	0	0	1	6
86.08056640625	0.100008005638301	176293	80	6	stim06_sf1_pattern2_cont2_shape1.png	0	80	0	475.005686348512	475.10569435415	0.100008005638301	stim06_sf1_pattern2_cont2_shape1.png	1	2	2	1	1	3	0	0	0	0	0	0	0	0	0	0	0	0	1	6
86.58056640625	0.100000087973967	177317	81	12	stim12_sf2_pattern2_cont1_shape1.png	0	81	0	475.505692360071	475.605692448045	0.100000087973967	stim12_sf2_pattern2_cont1_shape1.png	2	2	1	1	1	2	0	0	0	0	0	0	0	0	0	0	0	0	1	6
87.08056640625	0.100021494989051	178341	82	0	stim00_sf1_pattern1_cont1_shape1.png	0	82	0	476.005666994224	476.105688489213	0.100021494989051	stim00_sf1_pattern1_cont1_shape1.png	1	1	1	1	1	1	0	0	0	0	0	0	0	0	0	0	0	0	1	6
87.58056640625	0.0999951027788484	179365	83	13	stim13_sf2_pattern2_cont1_shape2.png	0	83	0	476.505705849424	476.605700952203	0.0999951027788484	stim13_sf2_pattern2_cont1_shape2.png	2	2	1	2	1	2	0	0	0	0	0	0	0	0	0	0	0	0	1	6
88.08056640625	0.0999953960254061	180389	84	8	stim08_sf2_pattern1_cont1_shape1.png	0	84	0	477.005674032147	477.105669428172	0.0999953960254061	stim08_sf2_pattern1_cont1_shape1.png	2	1	1	1	1	2	0	0	0	0	0	0	0	0	0	0	0	0	1	6
88.58056640625	0.0999813201797224	181413	85	14	stim14_sf2_pattern2_cont2_shape1.png	0	85	0	477.50567417877	477.60565549895	0.0999813201797224	stim14_sf2_pattern2_cont2_shape1.png	2	2	2	1	1	4	0	0	0	0	0	0	0	0	0	0	0	0	1	6
89.08056640625	0.100023254472035	182437	86	2	stim02_sf1_pattern1_cont2_shape1.png	0	86	0	478.005640602012	478.105663856484	0.100023254472035	stim02_sf1_pattern1_cont2_shape1.png	1	1	2	1	1	3	0	0	0	0	0	0	0	0	0	0	0	0	1	6
89.58056640625	0.0999989149877365	183461	87	7	stim07_sf1_pattern2_cont2_shape2.png	0	87	0	478.505667727341	478.605666642328	0.0999989149877365	stim07_sf1_pattern2_cont2_shape2.png	1	2	2	2	1	3	0	0	0	0	0	0	0	0	0	0	0	0	1	6
90.08056640625	0.0999904108302871	184485	88	11	stim11_sf2_pattern1_cont2_shape2.png	0	88	0	479.005653504872	479.105643915702	0.0999904108302871	stim11_sf2_pattern1_cont2_shape2.png	2	1	2	2	1	4	0	0	0	0	0	0	0	0	0	0	0	0	1	6
90.58056640625	0.0999927568045678	185509	89	7	stim07_sf1_pattern2_cont2_shape2.png	0	89	0	479.505646027079	479.605638783883	0.0999927568045678	stim07_sf1_pattern2_cont2_shape2.png	1	2	2	2	1	3	0	0	0	0	0	0	0	0	0	0	0	0	1	6
91.08056640625	0.100016509793932	186533	90	10	stim10_sf2_pattern1_cont2_shape1.png	0	90	0	480.005615969283	480.105632479077	0.100016509793932	stim10_sf2_pattern1_cont2_shape1.png	2	1	2	1	1	4	0	0	0	0	0	0	0	0	0	0	0	0	1	6
91.58056640625	0.0999977419996867	187557	91	6	stim06_sf1_pattern2_cont2_shape1.png	0	91	0	480.505623740322	480.605621482322	0.0999977419996867	stim06_sf1_pattern2_cont2_shape1.png	1	2	2	1	1	3	0	0	0	0	0	0	0	0	0	0	0	0	1	6
92.08056640625	0.09999744875131	188581	92	5	stim05_sf1_pattern2_cont1_shape2.png	0	92	0	481.005601893437	481.105599342189	0.09999744875131	stim05_sf1_pattern2_cont1_shape2.png	1	2	1	2	1	1	0	0	0	0	0	0	0	0	0	0	0	0	1	6
92.58056640625	0.0999983284928021	189605	93	4	stim04_sf1_pattern2_cont1_shape1.png	0	93	0	481.505611717204	481.605610045697	0.0999983284928021	stim04_sf1_pattern2_cont1_shape1.png	1	2	1	1	1	1	0	0	0	0	0	0	0	0	0	0	0	0	1	6
93.08056640625	0.0999863053748413	190629	94	9	stim09_sf2_pattern1_cont1_shape2.png	0	94	0	482.005605119151	482.105591424526	0.0999863053748413	stim09_sf2_pattern1_cont1_shape2.png	2	1	1	2	1	2	0	0	0	0	0	0	0	0	0	0	0	0	1	6
93.580078125	0.0999886513491219	191652	95	8	stim08_sf2_pattern1_cont1_shape1.png	0	95	0	482.505603213047	482.605591864396	0.0999886513491219	stim08_sf2_pattern1_cont1_shape1.png	2	1	1	1	1	2	0	0	0	0	0	0	0	0	0	0	0	0	1	6
94.080078125	0.100021201742493	192676	96	12	stim12_sf2_pattern2_cont1_shape1.png	0	96	0	483.005545590053	483.105566791795	0.100021201742493	stim12_sf2_pattern2_cont1_shape1.png	2	2	1	1	1	2	0	0	0	0	0	0	0	0	0	0	0	0	1	6
94.580078125	0.0999830796608876	193700	97	3	stim03_sf1_pattern1_cont2_shape2.png	0	97	0	483.505580046551	483.605563126212	0.0999830796608876	stim03_sf1_pattern1_cont2_shape2.png	1	1	2	2	1	3	0	0	0	0	0	0	0	0	0	0	0	0	1	6
95.080078125	0.100024427458266	194724	98	13	stim13_sf2_pattern2_cont1_shape2.png	0	98	0	484.00549016641	484.105514593868	0.100024427458266	stim13_sf2_pattern2_cont1_shape2.png	2	2	1	2	1	2	0	0	0	0	0	0	0	0	0	0	0	0	1	6
95.580078125	0.100000087973967	195748	99	14	stim14_sf2_pattern2_cont2_shape1.png	0	99	0	484.505563917977	484.605564005951	0.100000087973967	stim14_sf2_pattern2_cont2_shape1.png	2	2	2	1	1	4	0	0	0	0	0	0	0	0	0	0	0	0	1	6
96.080078125	0.100024134209889	196772	100	1	stim01_sf1_pattern1_cont1_shape2.png	0	100	0	485.005512746413	485.105536880623	0.100024134209889	stim01_sf1_pattern1_cont1_shape2.png	1	1	1	2	1	1	0	0	0	0	0	0	0	0	0	0	0	0	1	6
96.580078125	0.0999739890085038	197796	101	15	stim15_sf2_pattern2_cont2_shape2.png	0	101	0	485.505546909664	485.605520898673	0.0999739890085038	stim15_sf2_pattern2_cont2_shape2.png	2	2	2	2	1	4	0	0	0	0	0	0	0	0	0	0	0	0	1	6
97.080078125	0.0999909973234026	198820	102	0	stim00_sf1_pattern1_cont1_shape1.png	0	102	0	486.005526822259	486.105517819582	0.0999909973234026	stim00_sf1_pattern1_cont1_shape1.png	1	1	1	1	1	1	0	0	0	0	0	0	0	0	0	0	0	0	1	6
97.580078125	0.100022961223658	199844	103	2	stim02_sf1_pattern1_cont2_shape1.png	0	103	0	486.505508201088	486.605531162311	0.100022961223658	stim02_sf1_pattern1_cont2_shape1.png	1	1	2	1	1	3	0	0	0	0	0	0	0	0	0	0	0	0	1	6
98.080078125	0.0999569806954241	200868	104	13	stim13_sf2_pattern2_cont1_shape2.png	0	104	0	487.005513039659	487.105470020355	0.0999569806954241	stim13_sf2_pattern2_cont1_shape2.png	2	2	1	2	1	2	0	0	0	0	0	0	0	0	0	0	0	0	1	6
98.580078125	0.100016216547374	201892	105	1	stim01_sf1_pattern1_cont1_shape2.png	0	105	0	487.505472718225	487.605488934772	0.100016216547374	stim01_sf1_pattern1_cont1_shape2.png	1	1	1	2	1	1	0	0	0	0	0	0	0	0	0	0	0	0	1	6
99.080078125	0.0999719362825999	202916	106	3	stim03_sf1_pattern1_cont2_shape2.png	0	106	0	488.005478436538	488.105450372821	0.0999719362825999	stim03_sf1_pattern1_cont2_shape2.png	1	1	2	2	1	3	0	0	0	0	0	0	0	0	0	0	0	0	1	6
99.580078125	0.0999766282293422	203940	107	5	stim05_sf1_pattern2_cont1_shape2.png	0	107	0	488.505487380566	488.605464008795	0.0999766282293422	stim05_sf1_pattern2_cont1_shape2.png	1	2	1	2	1	1	0	0	0	0	0	0	0	0	0	0	0	0	1	6
100.080078125	0.0999769214758999	204964	108	2	stim02_sf1_pattern1_cont2_shape1.png	0	108	0	489.00545732277	489.105434244246	0.0999769214758999	stim02_sf1_pattern1_cont2_shape1.png	1	1	2	1	1	3	0	0	0	0	0	0	0	0	0	0	0	0	1	6
100.580078125	0.0999933432976832	205988	109	9	stim09_sf2_pattern1_cont1_shape2.png	0	109	0	489.505464800563	489.60545814386	0.0999933432976832	stim09_sf2_pattern1_cont1_shape2.png	2	1	1	2	1	2	0	0	0	0	0	0	0	0	0	0	0	0	1	6
101.080078125	0.0999751619983726	207012	110	12	stim12_sf2_pattern2_cont1_shape1.png	0	110	0	490.005452337573	490.105427499571	0.0999751619983726	stim12_sf2_pattern2_cont1_shape1.png	2	2	1	1	1	2	0	0	0	0	0	0	0	0	0	0	0	0	1	6
101.580078125	0.0999989149877365	208036	111	8	stim08_sf2_pattern1_cont1_shape1.png	0	111	1	490.505449844975	490.605448759963	0.0999989149877365	stim08_sf2_pattern1_cont1_shape1.png	2	1	1	1	1	2	0	0	0	0	0	0	0	0	0	0	0	0	1	6
102.080078125	0.0999989149877365	209060	112	8	stim08_sf2_pattern1_cont1_shape1.png	0	112	1	491.005429464323	491.105428379311	0.0999989149877365	stim08_sf2_pattern1_cont1_shape1.png	2	1	1	1	1	2	0	0	0	0	0	0	0	0	0	0	0	0	1	6
102.580078125	0.099997448753129	210084	113	13	stim13_sf2_pattern2_cont1_shape2.png	0	113	2	491.505459815367	491.605457264121	0.099997448753129	stim13_sf2_pattern2_cont1_shape2.png	2	2	1	2	1	2	0	0	0	0	0	0	0	0	0	0	0	0	1	6
103.080078125	0.100071346943878	211108	114	5	stim05_sf1_pattern2_cont1_shape2.png	0	114	2	492.005435036013	492.105506382957	0.100071346943878	stim05_sf1_pattern2_cont1_shape2.png	1	2	1	2	1	1	0	0	0	0	0	0	0	0	0	0	0	0	1	6
103.580078125	0.099994516283914	212132	115	10	stim10_sf2_pattern1_cont2_shape1.png	0	115	0	492.505443686794	492.605438203078	0.099994516283914	stim10_sf2_pattern1_cont2_shape1.png	2	1	2	1	1	4	0	0	0	0	0	0	0	0	0	0	0	0	1	6
104.080078125	0.100017096288866	213156	116	8	stim08_sf2_pattern1_cont1_shape1.png	0	116	0	493.005397207176	493.105414303465	0.100017096288866	stim08_sf2_pattern1_cont1_shape1.png	2	1	1	1	1	2	0	0	0	0	0	0	0	0	0	0	0	0	1	6
104.580078125	0.100006246157136	214180	117	7	stim07_sf1_pattern2_cont2_shape2.png	0	117	0	493.505424039258	493.605430285415	0.100006246157136	stim07_sf1_pattern2_cont2_shape2.png	1	2	2	2	1	3	0	0	0	0	0	0	0	0	0	0	0	0	1	6
105.080078125	0.0999907040768448	215204	118	14	stim14_sf2_pattern2_cont2_shape1.png	0	118	0	494.005407177568	494.105397881645	0.0999907040768448	stim14_sf2_pattern2_cont2_shape1.png	2	2	2	1	1	4	0	0	0	0	0	0	0	0	0	0	0	0	1	6
105.580078125	0.0999986217411788	216228	119	0	stim00_sf1_pattern1_cont1_shape1.png	0	119	0	494.505405857957	494.605404479698	0.0999986217411788	stim00_sf1_pattern1_cont1_shape1.png	1	1	1	1	1	1	0	0	0	0	0	0	0	0	0	0	0	0	1	6
106.080078125	0.0999980352462444	217252	120	4	stim04_sf1_pattern2_cont1_shape1.png	0	120	0	495.005381958345	495.105379993591	0.0999980352462444	stim04_sf1_pattern2_cont1_shape1.png	1	2	1	1	1	1	0	0	0	0	0	0	0	0	0	0	0	0	1	6
106.580078125	0.0999948095322907	218276	121	15	stim15_sf2_pattern2_cont2_shape2.png	0	121	0	495.505392661851	495.605387471383	0.0999948095322907	stim15_sf2_pattern2_cont2_shape2.png	2	2	2	2	1	4	0	0	0	0	0	0	0	0	0	0	0	0	1	6
107.080078125	0.100012404338486	219300	122	11	stim11_sf2_pattern1_cont2_shape2.png	0	122	0	496.005350287691	496.105362692029	0.100012404338486	stim11_sf2_pattern1_cont2_shape2.png	2	1	2	2	1	4	0	0	0	0	0	0	0	0	0	0	0	0	1	6
107.580078125	0.100003606934479	220324	123	6	stim06_sf1_pattern2_cont2_shape1.png	0	123	0	496.50537096159	496.605374568524	0.100003606934479	stim06_sf1_pattern2_cont2_shape1.png	1	2	2	1	1	3	0	0	0	0	0	0	0	0	0	0	0	0	1	6
108.080078125	0.0999939297907986	221348	124	5	stim05_sf1_pattern2_cont1_shape2.png	0	124	0	497.005349994444	497.105343924235	0.0999939297907986	stim05_sf1_pattern2_cont1_shape2.png	1	2	1	2	1	1	0	0	0	0	0	0	0	0	0	0	0	0	1	6
108.580078125	0.0999965690134559	222372	125	10	stim10_sf2_pattern1_cont2_shape1.png	0	125	0	497.505359818211	497.605356387225	0.0999965690134559	stim10_sf2_pattern1_cont2_shape1.png	2	1	2	1	1	4	0	0	0	0	0	0	0	0	0	0	0	0	1	6
109.080078125	0.100000087973967	223396	126	2	stim02_sf1_pattern1_cont2_shape1.png	0	126	0	498.005333865871	498.105333953845	0.100000087973967	stim02_sf1_pattern1_cont2_shape1.png	1	1	2	1	1	3	0	0	0	0	0	0	0	0	0	0	0	0	1	6
109.580078125	0.0999956892719638	224420	127	6	stim06_sf1_pattern2_cont2_shape1.png	0	127	0	498.505344276131	498.605339965403	0.0999956892719638	stim06_sf1_pattern2_cont2_shape1.png	1	2	2	1	1	3	0	0	0	0	0	0	0	0	0	0	0	0	1	6
110.080078125	0.100037330315899	225444	128	8	stim08_sf2_pattern1_cont1_shape1.png	0	128	0	499.005278442228	499.105315772544	0.100037330315899	stim08_sf2_pattern1_cont1_shape1.png	2	1	1	1	1	2	0	0	0	0	0	0	0	0	0	0	0	0	1	6
110.580078125	0.0999971555047523	226468	129	7	stim07_sf1_pattern2_cont2_shape2.png	0	129	0	499.505329320546	499.60532647605	0.0999971555047523	stim07_sf1_pattern2_cont2_shape2.png	1	2	2	2	1	3	0	0	0	0	0	0	0	0	0	0	0	0	1	6
111.07958984375	0.0999710565411078	227491	130	0	stim00_sf1_pattern1_cont1_shape1.png	0	130	0	500.005330053662	500.105301110203	0.0999710565411078	stim00_sf1_pattern1_cont1_shape1.png	1	1	1	1	1	1	0	0	0	0	0	0	0	0	0	0	0	0	1	6
111.57958984375	0.0999775079708343	228515	131	4	stim04_sf1_pattern2_cont1_shape1.png	0	131	0	500.505320816388	500.605298324359	0.0999775079708343	stim04_sf1_pattern2_cont1_shape1.png	1	2	1	1	1	1	0	0	0	0	0	0	0	0	0	0	0	0	1	6
112.07958984375	0.0999880648560065	229539	132	13	stim13_sf2_pattern2_cont1_shape2.png	0	132	0	501.005272577291	501.105260642147	0.0999880648560065	stim13_sf2_pattern2_cont1_shape2.png	2	2	1	2	1	2	0	0	0	0	0	0	0	0	0	0	0	0	1	6
112.57958984375	0.100003020441363	230563	133	11	stim11_sf2_pattern1_cont2_shape2.png	0	133	0	501.505290025476	501.605293045917	0.100003020441363	stim11_sf2_pattern1_cont2_shape2.png	2	1	2	2	1	4	0	0	0	0	0	0	0	0	0	0	0	0	1	6
113.07958984375	0.0999813201797224	231587	134	12	stim12_sf2_pattern2_cont1_shape1.png	0	134	0	502.005249704041	502.105231024221	0.0999813201797224	stim12_sf2_pattern2_cont1_shape1.png	2	2	1	1	1	2	0	0	0	0	0	0	0	0	0	0	0	0	1	6
113.57958984375	0.0999977419996867	232611	135	9	stim09_sf2_pattern1_cont1_shape2.png	0	135	0	502.50523841404	502.60523615604	0.0999977419996867	stim09_sf2_pattern1_cont1_shape2.png	2	1	1	2	1	2	0	0	0	0	0	0	0	0	0	0	0	0	1	6
114.07958984375	0.0999833729074453	233635	136	3	stim03_sf1_pattern1_cont2_shape2.png	0	136	0	503.005230936247	503.105214309155	0.0999833729074453	stim03_sf1_pattern1_cont2_shape2.png	1	1	2	2	1	3	0	0	0	0	0	0	0	0	0	0	0	0	1	6
114.57958984375	0.0999956892719638	234659	137	15	stim15_sf2_pattern2_cont2_shape2.png	0	137	0	503.505223751701	503.605219440973	0.0999956892719638	stim15_sf2_pattern2_cont2_shape2.png	2	2	2	2	1	4	0	0	0	0	0	0	0	0	0	0	0	0	1	6
115.07958984375	0.0999948095322907	235683	138	1	stim01_sf1_pattern1_cont1_shape2.png	0	138	0	504.005216273907	504.105211083439	0.0999948095322907	stim01_sf1_pattern1_cont1_shape2.png	1	1	1	2	1	1	0	0	0	0	0	0	0	0	0	0	0	0	1	6
115.57958984375	0.100001847455133	236707	139	14	stim14_sf2_pattern2_cont2_shape1.png	0	139	0	504.505209089361	504.605210936816	0.100001847455133	stim14_sf2_pattern2_cont2_shape1.png	2	2	2	1	1	4	0	0	0	0	0	0	0	0	0	0	0	0	1	6
116.07958984375	0.100035277588177	237731	140	12	stim12_sf2_pattern2_cont1_shape1.png	0	140	0	505.005194280398	505.105229557987	0.100035277588177	stim12_sf2_pattern2_cont1_shape1.png	2	2	1	1	1	2	0	0	0	0	0	0	0	0	0	0	0	0	1	6
116.57958984375	0.0999734025153884	238755	141	7	stim07_sf1_pattern2_cont2_shape2.png	0	141	0	505.505246624951	505.605220027466	0.0999734025153884	stim07_sf1_pattern2_cont2_shape2.png	1	2	2	2	1	3	0	0	0	0	0	0	0	0	0	0	0	0	1	6
117.07958984375	0.099997448753129	239779	142	9	stim09_sf2_pattern1_cont1_shape2.png	0	142	0	506.00521598066	506.105213429413	0.099997448753129	stim09_sf2_pattern1_cont1_shape2.png	2	1	1	2	1	2	0	0	0	0	0	0	0	0	0	0	0	0	1	6
117.57958984375	0.0999786809588841	240803	143	4	stim04_sf1_pattern2_cont1_shape1.png	0	143	0	506.505236947805	506.605215628764	0.0999786809588841	stim04_sf1_pattern2_cont1_shape1.png	1	2	1	1	1	1	0	0	0	0	0	0	0	0	0	0	0	0	1	6
118.07958984375	0.10001797602672	241827	144	10	stim10_sf2_pattern1_cont2_shape1.png	0	144	0	507.005191347931	507.105209323958	0.10001797602672	stim10_sf2_pattern1_cont2_shape1.png	2	1	2	1	1	4	0	0	0	0	0	0	0	0	0	0	0	0	1	6
118.57958984375	0.0999915838183369	242851	145	0	stim00_sf1_pattern1_cont1_shape1.png	0	145	0	507.505216127283	507.605207711102	0.0999915838183369	stim00_sf1_pattern1_cont1_shape1.png	1	1	1	1	1	1	0	0	0	0	0	0	0	0	0	0	0	0	1	6
119.07958984375	0.0996965775466379	243875	146	1	stim01_sf1_pattern1_cont1_shape2.png	0	146	0	508.005460255237	508.105156832784	0.0996965775466379	stim01_sf1_pattern1_cont1_shape2.png	1	1	1	2	1	1	0	0	0	0	0	0	0	0	0	0	0	0	1	6
119.57958984375	0.0999959825203405	244899	147	14	stim14_sf2_pattern2_cont2_shape1.png	0	147	0	508.505188562085	508.605184544605	0.0999959825203405	stim14_sf2_pattern2_cont2_shape1.png	2	2	2	1	1	4	0	0	0	0	0	0	0	0	0	0	0	0	1	6
120.07958984375	0.0999827864143299	245923	148	8	stim08_sf2_pattern1_cont1_shape1.png	0	148	0	509.005181084292	509.105163870707	0.0999827864143299	stim08_sf2_pattern1_cont1_shape1.png	2	1	1	1	1	2	0	0	0	0	0	0	0	0	0	0	0	0	1	6
120.57958984375	0.0999930500511255	246947	149	5	stim05_sf1_pattern2_cont1_shape2.png	0	149	0	509.505175365981	509.605168416032	0.0999930500511255	stim05_sf1_pattern2_cont1_shape2.png	1	2	1	2	1	1	0	0	0	0	0	0	0	0	0	0	0	0	1	6
121.07958984375	0.0999918770648947	247971	150	6	stim06_sf1_pattern2_cont2_shape1.png	0	150	0	510.005156451562	510.105148328626	0.0999918770648947	stim06_sf1_pattern2_cont2_shape1.png	1	2	2	1	1	3	0	0	0	0	0	0	0	0	0	0	0	0	1	6
121.57958984375	0.0999989149859175	248995	151	2	stim02_sf1_pattern1_cont2_shape1.png	0	151	0	510.505155425199	510.605154340185	0.0999989149859175	stim02_sf1_pattern1_cont2_shape1.png	1	1	2	1	1	3	0	0	0	0	0	0	0	0	0	0	0	0	1	6
122.07958984375	0.100017976028539	250019	152	3	stim03_sf1_pattern1_cont2_shape2.png	0	152	0	511.005113637531	511.10513161356	0.100017976028539	stim03_sf1_pattern1_cont2_shape2.png	1	1	2	2	1	3	0	0	0	0	0	0	0	0	0	0	0	0	1	6
122.57958984375	0.0999983284928021	251043	153	15	stim15_sf2_pattern2_cont2_shape2.png	0	153	0	511.505145748055	511.605144076548	0.0999983284928021	stim15_sf2_pattern2_cont2_shape2.png	2	2	2	2	1	4	0	0	0	0	0	0	0	0	0	0	0	0	1	6
123.07958984375	0.0999992082342942	252067	154	11	stim11_sf2_pattern1_cont2_shape2.png	0	154	0	512.005114810518	512.105114018752	0.0999992082342942	stim11_sf2_pattern1_cont2_shape2.png	2	1	2	2	1	4	0	0	0	0	0	0	0	0	0	0	0	0	1	6
123.57958984375	0.100017682780162	253091	155	13	stim13_sf2_pattern2_cont1_shape2.png	0	155	0	512.505104107011	512.605121789791	0.100017682780162	stim13_sf2_pattern2_cont1_shape2.png	2	2	1	2	1	2	0	0	0	0	0	0	0	0	0	0	0	0	1	6
124.07958984375	0.0999968622600136	254115	156	15	stim15_sf2_pattern2_cont2_shape2.png	0	156	0	513.005099268437	513.105096130697	0.0999968622600136	stim15_sf2_pattern2_cont2_shape2.png	2	2	2	2	1	4	0	0	0	0	0	0	0	0	0	0	0	0	1	6
124.57958984375	0.0999956892719638	255139	157	5	stim05_sf1_pattern2_cont1_shape2.png	0	157	0	513.505114370648	513.60511005992	0.0999956892719638	stim05_sf1_pattern2_cont1_shape2.png	1	2	1	2	1	1	0	0	0	0	0	0	0	0	0	0	0	0	1	6
125.07958984375	0.100003606936298	256163	158	4	stim04_sf1_pattern2_cont1_shape1.png	0	158	0	514.00507991415	514.105083521086	0.100003606936298	stim04_sf1_pattern2_cont1_shape1.png	1	2	1	1	1	1	0	0	0	0	0	0	0	0	0	0	0	0	1	6
125.57958984375	0.0999965690116369	257187	159	14	stim14_sf2_pattern2_cont2_shape1.png	0	159	0	514.505095602854	514.605092171865	0.0999965690116369	stim14_sf2_pattern2_cont2_shape1.png	2	2	2	1	1	4	0	0	0	0	0	0	0	0	0	0	0	0	1	6
126.07958984375	0.100024427456447	258211	160	12	stim12_sf2_pattern2_cont1_shape1.png	0	160	0	515.005044724536	515.105069151992	0.100024427456447	stim12_sf2_pattern2_cont1_shape1.png	2	2	1	1	1	2	0	0	0	0	0	0	0	0	0	0	0	0	1	6
126.57958984375	0.100001260962017	259235	161	1	stim01_sf1_pattern1_cont1_shape2.png	0	161	0	515.505078008046	515.605079269008	0.100001260962017	stim01_sf1_pattern1_cont1_shape2.png	1	1	1	2	1	1	0	0	0	0	0	0	0	0	0	0	0	0	1	6
127.07958984375	0.0999942230373563	260259	162	7	stim07_sf1_pattern2_cont2_shape2.png	0	162	0	516.005054694926	516.105048917963	0.0999942230373563	stim07_sf1_pattern2_cont2_shape2.png	1	2	2	2	1	3	0	0	0	0	0	0	0	0	0	0	0	0	1	6
127.57958984375	0.100008298884859	261283	163	9	stim09_sf2_pattern1_cont1_shape2.png	0	163	0	516.505045457652	516.605053756537	0.100008298884859	stim09_sf2_pattern1_cont1_shape2.png	2	1	1	2	1	2	0	0	0	0	0	0	0	0	0	0	0	0	1	6
128.0791015625	0.0999912905699603	262306	164	13	stim13_sf2_pattern2_cont1_shape2.png	0	164	0	517.005020971545	517.105012262115	0.0999912905699603	stim13_sf2_pattern2_cont1_shape2.png	2	2	1	2	1	2	0	0	0	0	0	0	0	0	0	0	0	0	1	6
128.5791015625	0.0999986217411788	263330	165	8	stim08_sf2_pattern1_cont1_shape1.png	0	165	0	517.505014373492	517.605012995233	0.0999986217411788	stim08_sf2_pattern1_cont1_shape1.png	2	1	1	1	1	2	0	0	0	0	0	0	0	0	0	0	0	0	1	6
129.0791015625	0.0999710565429268	264354	166	6	stim06_sf1_pattern2_cont2_shape1.png	0	166	0	518.005012174141	518.104983230684	0.0999710565429268	stim06_sf1_pattern2_cont2_shape1.png	1	2	2	1	1	3	0	0	0	0	0	0	0	0	0	0	0	0	1	6
129.5791015625	0.0999986217393598	265378	167	0	stim00_sf1_pattern1_cont1_shape1.png	0	167	0	518.504989740763	518.604988362502	0.0999986217393598	stim00_sf1_pattern1_cont1_shape1.png	1	1	1	1	1	1	0	0	0	0	0	0	0	0	0	0	0	0	1	6
130.08740234375	0.100011231352255	266419	168	10	stim10_sf2_pattern1_cont2_shape1.png	0	168	0	519.013342728962	519.113353960314	0.100011231352255	stim10_sf2_pattern1_cont2_shape1.png	2	1	2	1	1	4	0	0	0	0	0	0	0	0	0	0	0	0	1	6
130.58740234375	0.09996108615087	267443	169	3	stim03_sf1_pattern1_cont2_shape2.png	0	169	0	519.513334957921	519.613296044072	0.09996108615087	stim03_sf1_pattern1_cont2_shape2.png	1	1	2	2	1	3	0	0	0	0	0	0	0	0	0	0	0	0	1	6
131.08740234375	0.100002727196625	268467	170	11	stim11_sf2_pattern1_cont2_shape2.png	0	170	0	520.013319269217	520.113321996414	0.100002727196625	stim11_sf2_pattern1_cont2_shape2.png	2	1	2	2	1	4	0	0	0	0	0	0	0	0	0	0	0	0	1	6
131.58740234375	0.0999971555047523	269491	171	2	stim02_sf1_pattern1_cont2_shape1.png	0	171	0	520.513335837662	520.613332993167	0.0999971555047523	stim02_sf1_pattern1_cont2_shape1.png	1	1	2	1	1	3	0	0	0	0	0	0	0	0	0	0	0	0	1	6
157.8701171875	0.100000381220525	323318	172	7	stim07_sf1_pattern2_cont2_shape2.png	1	0	0	546.796256822021	546.896257203241	0.100000381220525	stim07_sf1_pattern2_cont2_shape2.png	1	2	2	2	1	3	0	0	0	0	0	0	0	0	0	0	0	0	1	6
158.3701171875	0.100001554208575	324342	173	2	stim02_sf1_pattern1_cont2_shape1.png	1	1	0	547.296249930721	547.39625148493	0.100001554208575	stim02_sf1_pattern1_cont2_shape1.png	1	1	2	1	1	3	0	0	0	0	0	0	0	0	0	0	0	0	1	6
158.8701171875	0.100037037069342	325366	174	14	stim14_sf2_pattern2_cont2_shape1.png	1	2	0	547.796224271628	547.896261308697	0.100037037069342	stim14_sf2_pattern2_cont2_shape1.png	2	2	2	1	1	4	0	0	0	0	0	0	0	0	0	0	0	0	1	6
159.3701171875	0.099991583816518	326390	175	4	stim04_sf1_pattern2_cont1_shape1.png	1	3	0	548.296254036177	548.396245619993	0.099991583816518	stim04_sf1_pattern2_cont1_shape1.png	1	2	1	1	1	1	0	0	0	0	0	0	0	0	0	0	0	0	1	6
159.8701171875	0.099994516285733	327414	176	6	stim06_sf1_pattern2_cont2_shape1.png	1	4	0	548.796236294746	548.896230811031	0.099994516285733	stim06_sf1_pattern2_cont2_shape1.png	1	2	2	1	1	3	0	0	0	0	0	0	0	0	0	0	0	0	1	6
160.3701171875	0.0999912905699603	328438	177	0	stim00_sf1_pattern1_cont1_shape1.png	1	5	0	549.296233215655	549.396224506225	0.0999912905699603	stim00_sf1_pattern1_cont1_shape1.png	1	1	1	1	1	1	0	0	0	0	0	0	0	0	0	0	0	0	1	6
160.8701171875	0.099986598623218	329462	178	15	stim15_sf2_pattern2_cont2_shape2.png	1	6	0	549.796230429809	549.896217028432	0.099986598623218	stim15_sf2_pattern2_cont2_shape2.png	2	2	2	2	1	4	0	0	0	0	0	0	0	0	0	0	0	0	1	6
161.3701171875	0.100004193429413	330486	179	11	stim11_sf2_pattern1_cont2_shape2.png	1	7	0	550.296205357208	550.396209550638	0.100004193429413	stim11_sf2_pattern1_cont2_shape2.png	2	1	2	2	1	4	0	0	0	0	0	0	0	0	0	0	0	0	1	6
161.8701171875	0.100008592131417	331510	180	1	stim01_sf1_pattern1_cont1_shape2.png	1	8	0	550.796191427986	550.896200020117	0.100008592131417	stim01_sf1_pattern1_cont1_shape2.png	1	1	1	2	1	1	0	0	0	0	0	0	0	0	0	0	0	0	1	6
162.3701171875	0.0999912905699603	332534	181	3	stim03_sf1_pattern1_cont2_shape2.png	1	9	0	551.296201545001	551.396192835571	0.0999912905699603	stim03_sf1_pattern1_cont2_shape2.png	1	1	2	2	1	3	0	0	0	0	0	0	0	0	0	0	0	0	1	6
162.8701171875	0.0999962757668982	333558	182	13	stim13_sf2_pattern2_cont1_shape2.png	1	10	0	551.796188788765	551.896185064532	0.0999962757668982	stim13_sf2_pattern2_cont1_shape2.png	2	2	1	2	1	2	0	0	0	0	0	0	0	0	0	0	0	0	1	6
163.3701171875	0.0999904108302871	334582	183	5	stim05_sf1_pattern2_cont1_shape2.png	1	11	0	552.296187762402	552.396178173232	0.0999904108302871	stim05_sf1_pattern2_cont1_shape2.png	1	2	1	2	1	1	0	0	0	0	0	0	0	0	0	0	0	0	1	6
163.8701171875	0.100004779922529	335606	184	8	stim08_sf2_pattern1_cont1_shape1.png	1	12	0	552.79617383318	552.896178613102	0.100004779922529	stim08_sf2_pattern1_cont1_shape1.png	2	1	1	1	1	2	0	0	0	0	0	0	0	0	0	0	0	0	1	6
164.3701171875	0.100005952910578	336630	185	10	stim10_sf2_pattern1_cont2_shape1.png	1	13	0	553.296158730969	553.39616468388	0.100005952910578	stim10_sf2_pattern1_cont2_shape1.png	2	1	2	1	1	4	0	0	0	0	0	0	0	0	0	0	0	0	1	6
164.8701171875	0.100014457066209	337654	186	9	stim09_sf2_pattern1_cont1_shape2.png	1	14	0	553.796142162526	553.896156619592	0.100014457066209	stim09_sf2_pattern1_cont1_shape2.png	2	1	1	2	1	2	0	0	0	0	0	0	0	0	0	0	0	0	1	6
165.3701171875	0.0999995014790329	338678	187	12	stim12_sf2_pattern2_cont1_shape1.png	1	15	0	554.296148467332	554.396147968811	0.0999995014790329	stim12_sf2_pattern2_cont1_shape1.png	2	2	1	1	1	2	0	0	0	0	0	0	0	0	0	0	0	0	1	6
165.8701171875	0.0999983284928021	339702	188	5	stim05_sf1_pattern2_cont1_shape2.png	1	16	0	554.796139523305	554.896137851798	0.0999983284928021	stim05_sf1_pattern2_cont1_shape2.png	1	2	1	2	1	1	0	0	0	0	0	0	0	0	0	0	0	0	1	6
166.3701171875	0.100005366415644	340726	189	9	stim09_sf2_pattern1_cont1_shape2.png	1	17	0	555.296130286031	555.396135652447	0.100005366415644	stim09_sf2_pattern1_cont1_shape2.png	2	1	1	2	1	2	0	0	0	0	0	0	0	0	0	0	0	0	1	6
166.8701171875	0.0999983284946211	341750	190	6	stim06_sf1_pattern2_cont2_shape1.png	1	18	0	555.796126913692	555.896125242187	0.0999983284946211	stim06_sf1_pattern2_cont2_shape1.png	1	2	2	1	1	3	0	0	0	0	0	0	0	0	0	0	0	0	1	6
167.3701171875	0.10000947187109	342774	191	13	stim13_sf2_pattern2_cont1_shape2.png	1	19	1	556.29611298447	556.396122456341	0.10000947187109	stim13_sf2_pattern2_cont1_shape2.png	2	2	1	2	1	2	0	0	0	0	0	0	0	0	0	0	0	0	1	6
167.8701171875	0.100041729017903	343798	192	13	stim13_sf2_pattern2_cont1_shape2.png	1	20	1	556.796076475244	556.896118204262	0.100041729017903	stim13_sf2_pattern2_cont1_shape2.png	2	2	1	2	1	2	0	0	0	0	0	0	0	0	0	0	0	0	1	6
168.3701171875	0.100007419145186	344822	193	3	stim03_sf1_pattern1_cont2_shape2.png	1	21	2	557.296102134338	557.396109553483	0.100007419145186	stim03_sf1_pattern1_cont2_shape2.png	1	1	2	2	1	3	0	0	0	0	0	0	0	0	0	0	0	0	1	6
168.86962890625	0.100000381220525	345845	194	5	stim05_sf1_pattern2_cont1_shape2.png	1	22	2	557.796070610309	557.89607099153	0.100000381220525	stim05_sf1_pattern2_cont1_shape2.png	1	2	1	2	1	1	0	0	0	0	0	0	0	0	0	0	0	0	1	6
169.36962890625	0.100000087973967	346869	195	13	stim13_sf2_pattern2_cont1_shape2.png	1	23	0	558.29604817693	558.396048264904	0.100000087973967	stim13_sf2_pattern2_cont1_shape2.png	2	2	1	2	1	2	0	0	0	0	0	0	0	0	0	0	0	0	1	6
169.86962890625	0.0999962757650792	347893	196	14	stim14_sf2_pattern2_cont2_shape1.png	1	24	0	558.796038059916	558.896034335681	0.0999962757650792	stim14_sf2_pattern2_cont2_shape1.png	2	2	2	1	1	4	0	0	0	0	0	0	0	0	0	0	0	0	1	6
170.36962890625	0.100001554208575	348917	197	1	stim01_sf1_pattern1_cont1_shape2.png	1	25	0	559.296025890173	559.396027444382	0.100001554208575	stim01_sf1_pattern1_cont1_shape2.png	1	1	1	2	1	1	0	0	0	0	0	0	0	0	0	0	0	0	1	6
170.86962890625	0.100022081483985	349941	198	10	stim10_sf2_pattern1_cont2_shape1.png	1	26	0	559.796010201469	559.896032282953	0.100022081483985	stim10_sf2_pattern1_cont2_shape1.png	2	1	2	1	1	4	0	0	0	0	0	0	0	0	0	0	0	0	1	6
171.36962890625	0.100016509795751	350965	199	7	stim07_sf1_pattern2_cont2_shape2.png	1	27	0	560.296015040041	560.396031549837	0.100016509795751	stim07_sf1_pattern2_cont2_shape2.png	1	2	2	2	1	3	0	0	0	0	0	0	0	0	0	0	0	0	1	6
171.86962890625	0.100002433948248	351989	200	15	stim15_sf2_pattern2_cont2_shape2.png	1	28	0	560.796016652899	560.896019086847	0.100002433948248	stim15_sf2_pattern2_cont2_shape2.png	2	2	2	2	1	4	0	0	0	0	0	0	0	0	0	0	0	0	1	6
172.36962890625	0.0999989149877365	353013	201	12	stim12_sf2_pattern2_cont1_shape1.png	1	29	0	561.29602618342	561.396025098407	0.0999989149877365	stim12_sf2_pattern2_cont1_shape1.png	2	2	1	1	1	2	0	0	0	0	0	0	0	0	0	0	0	0	1	6
172.86962890625	0.0999810269331647	354037	202	4	stim04_sf1_pattern2_cont1_shape1.png	1	30	0	561.796032781473	561.896013808406	0.0999810269331647	stim04_sf1_pattern2_cont1_shape1.png	1	2	1	1	1	1	0	0	0	0	0	0	0	0	0	0	0	0	1	6
173.36962890625	0.0999986217411788	355061	203	8	stim08_sf2_pattern1_cont1_shape1.png	1	31	0	562.296007708872	562.396006330613	0.0999986217411788	stim08_sf2_pattern1_cont1_shape1.png	2	1	1	1	1	2	0	0	0	0	0	0	0	0	0	0	0	0	1	6
173.86962890625	0.10000096771364	356085	204	11	stim11_sf2_pattern1_cont2_shape2.png	1	32	0	562.796025157057	562.89602612477	0.10000096771364	stim11_sf2_pattern1_cont2_shape2.png	2	1	2	2	1	4	0	0	0	0	0	0	0	0	0	0	0	0	1	6
174.36962890625	0.0999977419996867	357109	205	3	stim03_sf1_pattern1_cont2_shape2.png	1	33	0	563.296023250952	563.396020992952	0.0999977419996867	stim03_sf1_pattern1_cont2_shape2.png	1	1	2	2	1	3	0	0	0	0	0	0	0	0	0	0	0	0	1	6
174.86962890625	0.0999962757650792	358133	206	0	stim00_sf1_pattern1_cont1_shape1.png	1	34	0	563.796013427185	563.89600970295	0.0999962757650792	stim00_sf1_pattern1_cont1_shape1.png	1	1	1	1	1	1	0	0	0	0	0	0	0	0	0	0	0	0	1	6
175.36962890625	0.0999734025172074	359157	207	2	stim02_sf1_pattern1_cont2_shape1.png	1	35	0	564.295991873545	564.395965276062	0.0999734025172074	stim02_sf1_pattern1_cont2_shape1.png	1	1	2	1	1	3	0	0	0	0	0	0	0	0	0	0	0	0	1	6
175.86962890625	0.09999744875131	360181	208	15	stim15_sf2_pattern2_cont2_shape2.png	1	36	0	564.795992313417	564.895989762168	0.09999744875131	stim15_sf2_pattern2_cont2_shape2.png	2	2	2	2	1	4	0	0	0	0	0	0	0	0	0	0	0	0	1	6
176.36962890625	0.100001260962017	361205	209	7	stim07_sf1_pattern2_cont2_shape2.png	1	37	0	565.295977504453	565.395978765415	0.100001260962017	stim07_sf1_pattern2_cont2_shape2.png	1	2	2	2	1	3	0	0	0	0	0	0	0	0	0	0	0	0	1	6
176.86962890625	0.0999968622600136	362229	210	10	stim10_sf2_pattern1_cont2_shape1.png	1	38	0	565.795954191333	565.895951053593	0.0999968622600136	stim10_sf2_pattern1_cont2_shape1.png	2	1	2	1	1	4	0	0	0	0	0	0	0	0	0	0	0	0	1	6
177.36962890625	0.10000214070169	363253	211	11	stim11_sf2_pattern1_cont2_shape2.png	1	39	0	566.295962255619	566.395964396321	0.10000214070169	stim11_sf2_pattern1_cont2_shape2.png	2	1	2	2	1	4	0	0	0	0	0	0	0	0	0	0	0	0	1	6
177.86962890625	0.0999971555065713	364277	212	8	stim08_sf2_pattern1_cont1_shape1.png	1	40	0	566.795959763022	566.895956918528	0.0999971555065713	stim08_sf2_pattern1_cont1_shape1.png	2	1	1	1	1	2	0	0	0	0	0	0	0	0	0	0	0	0	1	6
178.36962890625	0.100000087973967	365301	213	12	stim12_sf2_pattern2_cont1_shape1.png	1	41	0	567.295947006787	567.395947094761	0.100000087973967	stim12_sf2_pattern2_cont1_shape1.png	2	2	1	1	1	2	0	0	0	0	0	0	0	0	0	0	0	0	1	6
178.86962890625	0.0999956892737828	366325	214	6	stim06_sf1_pattern2_cont2_shape1.png	1	42	0	567.795943927695	567.895939616968	0.0999956892737828	stim06_sf1_pattern2_cont2_shape1.png	1	2	2	1	1	3	0	0	0	0	0	0	0	0	0	0	0	0	1	6
179.36962890625	0.0999951027788484	367349	215	9	stim09_sf2_pattern1_cont1_shape2.png	1	43	0	568.295936743149	568.395931845927	0.0999951027788484	stim09_sf2_pattern1_cont1_shape2.png	2	1	1	2	1	2	0	0	0	0	0	0	0	0	0	0	0	0	1	6
179.86962890625	0.0999786809588841	368373	216	1	stim01_sf1_pattern1_cont1_shape2.png	1	44	0	568.795928972109	568.895907653068	0.0999786809588841	stim01_sf1_pattern1_cont1_shape2.png	1	1	1	2	1	1	0	0	0	0	0	0	0	0	0	0	0	0	1	6
180.36962890625	0.0999971555065713	369397	217	2	stim02_sf1_pattern1_cont2_shape1.png	1	45	0	569.295920907822	569.395918063328	0.0999971555065713	stim02_sf1_pattern1_cont2_shape1.png	1	1	2	1	1	3	0	0	0	0	0	0	0	0	0	0	0	0	1	6
180.86962890625	0.0999924635561911	370421	218	14	stim14_sf2_pattern2_cont2_shape1.png	1	46	0	569.795916948991	569.895909412548	0.0999924635561911	stim14_sf2_pattern2_cont2_shape1.png	2	2	2	1	1	4	0	0	0	0	0	0	0	0	0	0	0	0	1	6
181.36962890625	0.0999892378440563	371445	219	5	stim05_sf1_pattern2_cont1_shape2.png	1	47	0	570.295911523925	570.395900761769	0.0999892378440563	stim05_sf1_pattern2_cont1_shape2.png	1	2	1	2	1	1	0	0	0	0	0	0	0	0	0	0	0	0	1	6
181.86962890625	0.0999995014808519	372469	220	4	stim04_sf1_pattern2_cont1_shape1.png	1	48	0	570.795894368988	570.895893870469	0.0999995014808519	stim04_sf1_pattern2_cont1_shape1.png	1	2	1	1	1	1	0	0	0	0	0	0	0	0	0	0	0	0	1	6
182.36962890625	0.0999997947274096	373493	221	13	stim13_sf2_pattern2_cont1_shape2.png	1	49	0	571.29588366548	571.395883460207	0.0999997947274096	stim13_sf2_pattern2_cont1_shape2.png	2	2	1	2	1	2	0	0	0	0	0	0	0	0	0	0	0	0	1	6
182.86962890625	0.09996108615087	374517	222	3	stim03_sf1_pattern1_cont2_shape2.png	1	50	0	571.79588234587	571.895843432021	0.09996108615087	stim03_sf1_pattern1_cont2_shape2.png	1	1	2	2	1	3	0	0	0	0	0	0	0	0	0	0	0	0	1	6
183.36962890625	0.0999956892719638	375541	223	0	stim00_sf1_pattern1_cont1_shape1.png	1	51	0	572.295858153009	572.395853842281	0.0999956892719638	stim00_sf1_pattern1_cont1_shape1.png	1	1	1	1	1	1	0	0	0	0	0	0	0	0	0	0	0	0	1	6
183.86962890625	0.0999977419996867	376565	224	15	stim15_sf2_pattern2_cont2_shape2.png	1	52	0	572.795842464306	572.895840206305	0.0999977419996867	stim15_sf2_pattern2_cont2_shape2.png	2	2	2	2	1	4	0	0	0	0	0	0	0	0	0	0	0	0	1	6
184.36962890625	0.0999874783628911	377589	225	13	stim13_sf2_pattern2_cont1_shape2.png	1	53	1	573.295834986513	573.395822464876	0.0999874783628911	stim13_sf2_pattern2_cont1_shape2.png	2	2	1	2	1	2	0	0	0	0	0	0	0	0	0	0	0	0	1	6
184.86962890625	0.0999997947255906	378613	226	13	stim13_sf2_pattern2_cont1_shape2.png	1	54	1	573.795813432875	573.8958132276	0.0999997947255906	stim13_sf2_pattern2_cont1_shape2.png	2	2	1	2	1	2	0	0	0	0	0	0	0	0	0	0	0	0	1	6
185.36962890625	0.100000674467083	379637	227	8	stim08_sf2_pattern1_cont1_shape1.png	1	55	2	574.295795691443	574.39579636591	0.100000674467083	stim08_sf2_pattern1_cont1_shape1.png	2	1	1	1	1	2	0	0	0	0	0	0	0	0	0	0	0	0	1	6
185.86962890625	0.0999983284928021	380661	228	4	stim04_sf1_pattern2_cont1_shape1.png	1	56	2	574.795792905599	574.895791234092	0.0999983284928021	stim04_sf1_pattern2_cont1_shape1.png	1	2	1	1	1	1	0	0	0	0	0	0	0	0	0	0	0	0	1	6
186.369140625	0.100006832650251	381684	229	2	stim02_sf1_pattern1_cont2_shape1.png	1	57	0	575.295784254818	575.395791087469	0.100006832650251	stim02_sf1_pattern1_cont2_shape1.png	1	1	2	1	1	3	0	0	0	0	0	0	0	0	0	0	0	0	1	6
186.869140625	0.0999953960254061	382708	230	4	stim04_sf1_pattern2_cont1_shape1.png	1	58	0	575.795780295986	575.895775692012	0.0999953960254061	stim04_sf1_pattern2_cont1_shape1.png	1	2	1	1	1	1	0	0	0	0	0	0	0	0	0	0	0	0	1	6
187.369140625	0.100001847455133	383732	231	6	stim06_sf1_pattern2_cont2_shape1.png	1	59	0	576.295791879234	576.39579372669	0.100001847455133	stim06_sf1_pattern2_cont2_shape1.png	1	2	2	1	1	3	0	0	0	0	0	0	0	0	0	0	0	0	1	6
187.869140625	0.0999930500511255	384756	232	14	stim14_sf2_pattern2_cont2_shape1.png	1	60	0	576.795794078585	576.895787128637	0.0999930500511255	stim14_sf2_pattern2_cont2_shape1.png	2	2	2	1	1	4	0	0	0	0	0	0	0	0	0	0	0	0	1	6
188.369140625	0.100004779922529	385780	233	5	stim05_sf1_pattern2_cont1_shape2.png	1	61	0	577.295776337154	577.395781117077	0.100004779922529	stim05_sf1_pattern2_cont1_shape2.png	1	2	1	2	1	1	0	0	0	0	0	0	0	0	0	0	0	0	1	6
188.869140625	0.100006246157136	386804	234	0	stim00_sf1_pattern1_cont1_shape1.png	1	62	0	577.795770618843	577.895776865	0.100006246157136	stim00_sf1_pattern1_cont1_shape1.png	1	1	1	1	1	1	0	0	0	0	0	0	0	0	0	0	0	0	1	6
189.369140625	0.100035277589996	387828	235	7	stim07_sf1_pattern2_cont2_shape2.png	1	63	0	578.295787773779	578.395823051369	0.100035277589996	stim07_sf1_pattern2_cont2_shape2.png	1	2	2	2	1	3	0	0	0	0	0	0	0	0	0	0	0	0	1	6
189.869140625	0.100003313687921	388852	236	3	stim03_sf1_pattern1_cont2_shape2.png	1	64	0	578.795783814949	578.895787128637	0.100003313687921	stim03_sf1_pattern1_cont2_shape2.png	1	1	2	2	1	3	0	0	0	0	0	0	0	0	0	0	0	0	1	6
190.369140625	0.0999868918679567	389876	237	9	stim09_sf2_pattern1_cont1_shape2.png	1	65	0	579.295776923649	579.395763815517	0.0999868918679567	stim09_sf2_pattern1_cont1_shape2.png	2	1	1	2	1	2	0	0	0	0	0	0	0	0	0	0	0	0	1	6
190.869140625	0.0999997947274096	390900	238	8	stim08_sf2_pattern1_cont1_shape1.png	1	66	0	579.795760941699	579.895760736426	0.0999997947274096	stim08_sf2_pattern1_cont1_shape1.png	2	1	1	1	1	2	0	0	0	0	0	0	0	0	0	0	0	0	1	6
191.369140625	0.0999622591389198	391924	239	11	stim11_sf2_pattern1_cont2_shape2.png	1	67	0	580.295761674815	580.395723933954	0.0999622591389198	stim11_sf2_pattern1_cont2_shape2.png	2	1	2	2	1	4	0	0	0	0	0	0	0	0	0	0	0	0	1	6
191.869140625	0.100001847453314	392948	240	10	stim10_sf2_pattern1_cont2_shape1.png	1	68	0	580.795744519879	580.895746367332	0.100001847453314	stim10_sf2_pattern1_cont2_shape1.png	2	1	2	1	1	4	0	0	0	0	0	0	0	0	0	0	0	0	1	6
192.369140625	0.0999977419996867	393972	241	1	stim01_sf1_pattern1_cont1_shape2.png	1	69	0	581.295738215073	581.395735957072	0.0999977419996867	stim01_sf1_pattern1_cont1_shape2.png	1	1	1	2	1	1	0	0	0	0	0	0	0	0	0	0	0	0	1	6
192.869140625	0.099997448753129	394996	242	13	stim13_sf2_pattern2_cont1_shape2.png	1	70	0	581.795729271045	581.895726719798	0.099997448753129	stim13_sf2_pattern2_cont1_shape2.png	2	2	1	2	1	2	0	0	0	0	0	0	0	0	0	0	0	0	1	6
193.369140625	0.100004486675971	396020	243	12	stim12_sf2_pattern2_cont1_shape1.png	1	71	0	582.295714462081	582.395718948757	0.100004486675971	stim12_sf2_pattern2_cont1_shape1.png	2	2	1	1	1	2	0	0	0	0	0	0	0	0	0	0	0	0	1	6
193.869140625	0.0999757484896691	397044	244	15	stim15_sf2_pattern2_cont2_shape2.png	1	72	0	582.795713142472	582.895688890962	0.0999757484896691	stim15_sf2_pattern2_cont2_shape2.png	2	2	2	2	1	4	0	0	0	0	0	0	0	0	0	0	0	0	1	6
194.369140625	0.0999953960254061	398068	245	12	stim12_sf2_pattern2_cont1_shape1.png	1	73	0	583.295708010653	583.395703406679	0.0999953960254061	stim12_sf2_pattern2_cont1_shape1.png	2	2	1	1	1	2	0	0	0	0	0	0	0	0	0	0	0	0	1	6
194.869140625	0.0999997947274096	399092	246	13	stim13_sf2_pattern2_cont1_shape2.png	1	74	0	583.795696720652	583.895696515379	0.0999997947274096	stim13_sf2_pattern2_cont1_shape2.png	2	2	1	2	1	2	0	0	0	0	0	0	0	0	0	0	0	0	1	6
195.369140625	0.100004779922529	400116	247	8	stim08_sf2_pattern1_cont1_shape1.png	1	75	0	584.295682791429	584.395687571352	0.100004779922529	stim08_sf2_pattern1_cont1_shape1.png	2	1	1	1	1	2	0	0	0	0	0	0	0	0	0	0	0	0	1	6
195.869140625	0.0999968622581946	401140	248	0	stim00_sf1_pattern1_cont1_shape1.png	1	76	0	584.795682938053	584.895679800311	0.0999968622581946	stim00_sf1_pattern1_cont1_shape1.png	1	1	1	1	1	1	0	0	0	0	0	0	0	0	0	0	0	0	1	6
196.369140625	0.0999995014808519	402164	249	11	stim11_sf2_pattern1_cont2_shape2.png	1	77	0	585.295674873765	585.395674375246	0.0999995014808519	stim11_sf2_pattern1_cont2_shape2.png	2	1	2	2	1	4	0	0	0	0	0	0	0	0	0	0	0	0	1	6
196.869140625	0.100001554208575	403188	250	3	stim03_sf1_pattern1_cont2_shape2.png	1	78	1	585.795666516231	585.89566807044	0.100001554208575	stim03_sf1_pattern1_cont2_shape2.png	1	1	2	2	1	3	0	0	0	0	0	0	0	0	0	0	0	0	1	6
197.369140625	0.100001260962017	404212	251	3	stim03_sf1_pattern1_cont2_shape2.png	1	79	1	586.295659624931	586.395660885893	0.100001260962017	stim03_sf1_pattern1_cont2_shape2.png	1	1	2	2	1	3	0	0	0	0	0	0	0	0	0	0	0	0	1	6
197.869140625	0.099980733686607	405236	252	2	stim02_sf1_pattern1_cont2_shape1.png	1	80	2	586.795649214671	586.895629948358	0.099980733686607	stim02_sf1_pattern1_cont2_shape1.png	1	1	2	1	1	3	0	0	0	0	0	0	0	0	0	0	0	0	1	6
198.369140625	0.10000214070169	406260	253	6	stim06_sf1_pattern2_cont2_shape1.png	1	81	2	587.295636165189	587.39563830589	0.10000214070169	stim06_sf1_pattern2_cont2_shape1.png	1	2	2	1	1	3	0	0	0	0	0	0	0	0	0	0	0	0	1	6
198.869140625	0.0999798539451149	407284	254	5	stim05_sf1_pattern2_cont1_shape2.png	1	82	0	587.795640124021	587.895619977966	0.0999798539451149	stim05_sf1_pattern2_cont1_shape2.png	1	2	1	2	1	1	0	0	0	0	0	0	0	0	0	0	0	0	1	6
199.369140625	0.0999997947274096	408308	255	9	stim09_sf2_pattern1_cont1_shape2.png	1	83	0	588.295601268821	588.395601063548	0.0999997947274096	stim09_sf2_pattern1_cont1_shape2.png	2	1	1	2	1	2	0	0	0	0	0	0	0	0	0	0	0	0	1	6
199.869140625	0.0999983284928021	409332	256	7	stim07_sf1_pattern2_cont2_shape2.png	1	84	0	588.795584700378	588.895583028871	0.0999983284928021	stim07_sf1_pattern2_cont2_shape2.png	1	2	2	2	1	3	0	0	0	0	0	0	0	0	0	0	0	0	1	6
200.369140625	0.0999877716094488	410356	257	14	stim14_sf2_pattern2_cont2_shape1.png	1	85	0	589.295580448299	589.395568219908	0.0999877716094488	stim14_sf2_pattern2_cont2_shape1.png	2	2	2	1	1	4	0	0	0	0	0	0	0	0	0	0	0	0	1	6
200.869140625	0.10001914901477	411380	258	2	stim02_sf1_pattern1_cont2_shape1.png	1	86	0	589.795562120375	589.895581269389	0.10001914901477	stim02_sf1_pattern1_cont2_shape1.png	1	1	2	1	1	3	0	0	0	0	0	0	0	0	0	0	0	0	1	6
201.369140625	0.0999965690134559	412404	259	10	stim10_sf2_pattern1_cont2_shape1.png	1	87	0	590.295555815568	590.395552384582	0.0999965690134559	stim10_sf2_pattern1_cont2_shape1.png	2	1	2	1	1	4	0	0	0	0	0	0	0	0	0	0	0	0	1	6
201.869140625	0.0999980352462444	413428	260	3	stim03_sf1_pattern1_cont2_shape2.png	1	88	0	590.795548337775	590.895546373022	0.0999980352462444	stim03_sf1_pattern1_cont2_shape2.png	1	1	2	2	1	3	0	0	0	0	0	0	0	0	0	0	0	0	1	6
202.369140625	0.100003606936298	414452	261	6	stim06_sf1_pattern2_cont2_shape1.png	1	89	0	591.295537047774	591.39554065471	0.100003606936298	stim06_sf1_pattern2_cont2_shape1.png	1	2	2	1	1	3	0	0	0	0	0	0	0	0	0	0	0	0	1	6
202.869140625	0.0999701768014347	415476	262	4	stim04_sf1_pattern2_cont1_shape1.png	1	90	0	591.795563879856	591.895534056657	0.0999701768014347	stim04_sf1_pattern2_cont1_shape1.png	1	2	1	1	1	1	0	0	0	0	0	0	0	0	0	0	0	0	1	6
203.369140625	0.100003313687921	416500	263	1	stim01_sf1_pattern1_cont1_shape2.png	1	91	0	592.295547897906	592.395551211594	0.100003313687921	stim01_sf1_pattern1_cont1_shape2.png	1	1	1	2	1	1	0	0	0	0	0	0	0	0	0	0	0	0	1	6
203.86865234375	0.0999956892719638	417523	264	7	stim07_sf1_pattern2_cont2_shape2.png	1	92	0	592.795548631022	592.895544320294	0.0999956892719638	stim07_sf1_pattern2_cont2_shape2.png	1	2	2	2	1	3	0	0	0	0	0	0	0	0	0	0	0	0	1	6
204.36865234375	0.0999833729074453	418547	265	9	stim09_sf2_pattern1_cont1_shape2.png	1	93	0	593.29555376284	593.395537135748	0.0999833729074453	stim09_sf2_pattern1_cont1_shape2.png	2	1	1	2	1	2	0	0	0	0	0	0	0	0	0	0	0	0	1	6
204.86865234375	0.099997448753129	419571	266	3	stim03_sf1_pattern1_cont2_shape2.png	1	94	0	593.795554495959	593.895551944712	0.099997448753129	stim03_sf1_pattern1_cont2_shape2.png	1	1	2	2	1	3	0	0	0	0	0	0	0	0	0	0	0	0	1	6
205.36865234375	0.100003020441363	420595	267	4	stim04_sf1_pattern2_cont1_shape1.png	1	95	0	594.295540566736	594.395543587178	0.100003020441363	stim04_sf1_pattern2_cont1_shape1.png	1	2	1	1	1	1	0	0	0	0	0	0	0	0	0	0	0	0	1	6
205.86865234375	0.0999989149877365	421619	268	15	stim15_sf2_pattern2_cont2_shape2.png	1	96	0	594.795531036214	594.895529951202	0.0999989149877365	stim15_sf2_pattern2_cont2_shape2.png	2	2	2	2	1	4	0	0	0	0	0	0	0	0	0	0	0	0	1	6
206.36865234375	0.100006539401875	422643	269	2	stim02_sf1_pattern1_cont2_shape1.png	1	97	0	595.295517693487	595.395524232888	0.100006539401875	stim02_sf1_pattern1_cont2_shape1.png	1	1	2	1	1	3	0	0	0	0	0	0	0	0	0	0	0	0	1	6
206.86865234375	0.099986598623218	423667	270	11	stim11_sf2_pattern1_cont2_shape2.png	1	98	0	595.795526637512	595.895513236135	0.099986598623218	stim11_sf2_pattern1_cont2_shape2.png	2	1	2	2	1	4	0	0	0	0	0	0	0	0	0	0	0	0	1	6
207.36865234375	0.100006539401875	424691	271	8	stim08_sf2_pattern1_cont1_shape1.png	1	99	0	596.295492474263	596.395499013664	0.100006539401875	stim08_sf2_pattern1_cont1_shape1.png	2	1	1	1	1	2	0	0	0	0	0	0	0	0	0	0	0	0	1	6
207.86865234375	0.0999959825185215	425715	272	13	stim13_sf2_pattern2_cont1_shape2.png	1	100	0	596.795500245302	596.89549622782	0.0999959825185215	stim13_sf2_pattern2_cont1_shape2.png	2	2	1	2	1	2	0	0	0	0	0	0	0	0	0	0	0	0	1	6
208.36865234375	0.0999992082342942	426739	273	0	stim00_sf1_pattern1_cont1_shape1.png	1	101	0	597.295491008028	597.395490216262	0.0999992082342942	stim00_sf1_pattern1_cont1_shape1.png	1	1	1	1	1	1	0	0	0	0	0	0	0	0	0	0	0	0	1	6
208.86865234375	0.0999959825185215	427763	274	14	stim14_sf2_pattern2_cont2_shape1.png	1	102	0	597.795487049196	597.895483031714	0.0999959825185215	stim14_sf2_pattern2_cont2_shape1.png	2	2	2	1	1	4	0	0	0	0	0	0	0	0	0	0	0	0	1	6
209.36865234375	0.0999933432976832	428787	275	10	stim10_sf2_pattern1_cont2_shape1.png	1	103	0	598.295479571403	598.395472914701	0.0999933432976832	stim10_sf2_pattern1_cont2_shape1.png	2	1	2	1	1	4	0	0	0	0	0	0	0	0	0	0	0	0	1	6
209.86865234375	0.0999986217393598	429811	276	6	stim06_sf1_pattern2_cont2_shape1.png	1	104	0	598.795470334129	598.895468955869	0.0999986217393598	stim06_sf1_pattern2_cont2_shape1.png	1	2	2	1	1	3	0	0	0	0	0	0	0	0	0	0	0	0	1	6
210.36865234375	0.100025307197939	430835	277	1	stim01_sf1_pattern1_cont1_shape2.png	1	105	0	599.295433238411	599.395458545609	0.100025307197939	stim01_sf1_pattern1_cont1_shape2.png	1	1	1	2	1	1	0	0	0	0	0	0	0	0	0	0	0	0	1	6
210.86865234375	0.0999989149877365	431859	278	5	stim05_sf1_pattern2_cont1_shape2.png	1	106	0	599.795454498802	599.89545341379	0.0999989149877365	stim05_sf1_pattern2_cont1_shape2.png	1	2	1	2	1	1	0	0	0	0	0	0	0	0	0	0	0	0	1	6
211.36865234375	0.099989531088795	432883	279	12	stim12_sf2_pattern2_cont1_shape1.png	1	107	0	600.295446727763	600.395436258852	0.099989531088795	stim12_sf2_pattern2_cont1_shape1.png	2	2	1	1	1	2	0	0	0	0	0	0	0	0	0	0	0	0	1	6
211.86865234375	0.0999962757650792	433907	280	10	stim10_sf2_pattern1_cont2_shape1.png	1	108	0	600.79544012971	600.895436405475	0.0999962757650792	stim10_sf2_pattern1_cont2_shape1.png	2	1	2	1	1	4	0	0	0	0	0	0	0	0	0	0	0	0	1	6
212.36865234375	0.0999845458954951	434931	281	13	stim13_sf2_pattern2_cont1_shape2.png	1	109	0	601.295425320746	601.395409866642	0.0999845458954951	stim13_sf2_pattern2_cont1_shape2.png	2	2	1	2	1	2	0	0	0	0	0	0	0	0	0	0	0	0	1	6
212.86865234375	0.0999965690134559	435955	282	3	stim03_sf1_pattern1_cont2_shape2.png	1	110	0	601.79542546737	601.895422036383	0.0999965690134559	stim03_sf1_pattern1_cont2_shape2.png	1	1	2	2	1	3	0	0	0	0	0	0	0	0	0	0	0	0	1	6
213.36865234375	0.100006832650251	436979	283	14	stim14_sf2_pattern2_cont2_shape1.png	1	111	0	602.295410951654	602.395417784304	0.100006832650251	stim14_sf2_pattern2_cont2_shape1.png	2	2	2	1	1	4	0	0	0	0	0	0	0	0	0	0	0	0	1	6
213.86865234375	0.100012404340305	438003	284	1	stim01_sf1_pattern1_cont1_shape2.png	1	112	0	602.795392916976	602.895405321317	0.100012404340305	stim01_sf1_pattern1_cont1_shape2.png	1	1	1	2	1	1	0	0	0	0	0	0	0	0	0	0	0	0	1	6
214.36865234375	0.100007712389925	439027	285	0	stim00_sf1_pattern1_cont1_shape1.png	1	113	0	603.295396875808	603.395404588198	0.100007712389925	stim00_sf1_pattern1_cont1_shape1.png	1	1	1	1	1	1	0	0	0	0	0	0	0	0	0	0	0	0	1	6
214.86865234375	0.0999572739419818	440051	286	15	stim15_sf2_pattern2_cont2_shape2.png	1	114	0	603.795389691262	603.895346965204	0.0999572739419818	stim15_sf2_pattern2_cont2_shape2.png	2	2	2	2	1	4	0	0	0	0	0	0	0	0	0	0	0	0	1	6
215.36865234375	0.100022374730543	441075	287	11	stim11_sf2_pattern1_cont2_shape2.png	1	115	0	604.295309488265	604.395331862996	0.100022374730543	stim11_sf2_pattern1_cont2_shape2.png	2	1	2	2	1	4	0	0	0	0	0	0	0	0	0	0	0	0	1	6
215.86865234375	0.100007419143367	442099	288	5	stim05_sf1_pattern2_cont1_shape2.png	1	116	0	604.795334267619	604.895341686763	0.100007419143367	stim05_sf1_pattern2_cont1_shape2.png	1	2	1	2	1	1	0	0	0	0	0	0	0	0	0	0	0	0	1	6
216.36865234375	0.100000381220525	443123	289	4	stim04_sf1_pattern2_cont1_shape1.png	1	117	0	605.295324150604	605.395324531824	0.100000381220525	stim04_sf1_pattern2_cont1_shape1.png	1	2	1	1	1	1	0	0	0	0	0	0	0	0	0	0	0	0	1	6
216.86865234375	0.0999909973234026	444147	290	9	stim09_sf2_pattern1_cont1_shape2.png	1	118	0	605.795325470215	605.895316467539	0.0999909973234026	stim09_sf2_pattern1_cont1_shape2.png	2	1	1	2	1	2	0	0	0	0	0	0	0	0	0	0	0	0	1	6
217.36865234375	0.0999992082342942	445171	291	12	stim12_sf2_pattern2_cont1_shape1.png	1	119	0	606.295309781512	606.395308989746	0.0999992082342942	stim12_sf2_pattern2_cont1_shape1.png	2	2	1	1	1	2	0	0	0	0	0	0	0	0	0	0	0	0	1	6
217.86865234375	0.100038503303949	446195	292	7	stim07_sf1_pattern2_cont2_shape2.png	1	120	0	606.795313153849	606.895351657153	0.100038503303949	stim07_sf1_pattern2_cont2_shape2.png	1	2	2	2	1	3	0	0	0	0	0	0	0	0	0	0	0	0	1	6
218.36865234375	0.0999942230391753	447219	293	6	stim06_sf1_pattern2_cont2_shape1.png	1	121	0	607.295333534501	607.39532775754	0.0999942230391753	stim06_sf1_pattern2_cont2_shape1.png	1	2	2	1	1	3	0	0	0	0	0	0	0	0	0	0	0	0	1	6
218.86865234375	0.0999628456320352	448243	294	8	stim08_sf2_pattern1_cont1_shape1.png	1	122	0	607.795322537746	607.895285383378	0.0999628456320352	stim08_sf2_pattern1_cont1_shape1.png	2	1	1	1	1	2	0	0	0	0	0	0	0	0	0	0	0	0	1	6
219.36865234375	0.0999948095322907	449267	295	2	stim02_sf1_pattern1_cont2_shape1.png	1	123	0	608.295303916575	608.395298726107	0.0999948095322907	stim02_sf1_pattern1_cont2_shape1.png	1	1	2	1	1	3	0	0	0	0	0	0	0	0	0	0	0	0	1	6
219.86865234375	0.100004193429413	450291	296	13	stim13_sf2_pattern2_cont1_shape2.png	1	124	0	608.795320191772	608.895324385201	0.100004193429413	stim13_sf2_pattern2_cont1_shape2.png	2	2	1	2	1	2	0	0	0	0	0	0	0	0	0	0	0	0	1	6
220.36865234375	0.100006246157136	451315	297	7	stim07_sf1_pattern2_cont2_shape2.png	1	125	0	609.295308608524	609.395314854681	0.100006246157136	stim07_sf1_pattern2_cont2_shape2.png	1	2	2	2	1	3	0	0	0	0	0	0	0	0	0	0	0	0	1	6
220.86865234375	0.0999041962732008	452339	298	12	stim12_sf2_pattern2_cont1_shape1.png	1	126	0	609.795399954899	609.895304151172	0.0999041962732008	stim12_sf2_pattern2_cont1_shape1.png	2	2	1	1	1	2	0	0	0	0	0	0	0	0	0	0	0	0	1	6
221.3681640625	0.0999707632945501	453362	299	4	stim04_sf1_pattern2_cont1_shape1.png	1	127	0	610.295297465147	610.395268228442	0.0999707632945501	stim04_sf1_pattern2_cont1_shape1.png	1	2	1	1	1	1	0	0	0	0	0	0	0	0	0	0	0	0	1	6
221.8681640625	0.099997448753129	454386	300	15	stim15_sf2_pattern2_cont2_shape2.png	1	128	0	610.795288814366	610.895286263119	0.099997448753129	stim15_sf2_pattern2_cont2_shape2.png	2	2	2	2	1	4	0	0	0	0	0	0	0	0	0	0	0	0	1	6
222.3681640625	0.10000331368974	455410	301	0	stim00_sf1_pattern1_cont1_shape1.png	1	129	0	611.295274005402	611.395277319092	0.10000331368974	stim00_sf1_pattern1_cont1_shape1.png	1	1	1	1	1	1	0	0	0	0	0	0	0	0	0	0	0	0	1	6
222.8681640625	0.0999962757668982	456434	302	2	stim02_sf1_pattern1_cont2_shape1.png	1	130	0	611.795271806051	611.895268081818	0.0999962757668982	stim02_sf1_pattern1_cont2_shape1.png	1	1	2	1	1	3	0	0	0	0	0	0	0	0	0	0	0	0	1	6
223.3681640625	0.100011231352255	457458	303	11	stim11_sf2_pattern1_cont2_shape2.png	1	131	0	612.295257290336	612.395268521688	0.100011231352255	stim11_sf2_pattern1_cont2_shape2.png	2	1	2	2	1	4	0	0	0	0	0	0	0	0	0	0	0	0	1	6
223.8681640625	0.0999965690116369	458482	304	5	stim05_sf1_pattern2_cont1_shape2.png	1	132	0	612.795256850466	612.895253419478	0.0999965690116369	stim05_sf1_pattern2_cont1_shape2.png	1	2	1	2	1	1	0	0	0	0	0	0	0	0	0	0	0	0	1	6
224.3681640625	0.100005073169086	459506	305	6	stim06_sf1_pattern2_cont2_shape1.png	1	133	0	613.295242921244	613.395247994413	0.100005073169086	stim06_sf1_pattern2_cont2_shape1.png	1	2	2	1	1	3	0	0	0	0	0	0	0	0	0	0	0	0	1	6
224.8681640625	0.0999971555047523	460530	306	1	stim01_sf1_pattern1_cont1_shape2.png	1	134	0	613.795240428646	613.895237584151	0.0999971555047523	stim01_sf1_pattern1_cont1_shape2.png	1	1	1	2	1	1	0	0	0	0	0	0	0	0	0	0	0	0	1	6
225.3681640625	0.100023254470216	461554	307	9	stim09_sf2_pattern1_cont1_shape2.png	1	135	0	614.295208611369	614.395231865839	0.100023254470216	stim09_sf2_pattern1_cont1_shape2.png	2	1	1	2	1	2	0	0	0	0	0	0	0	0	0	0	0	0	1	6
225.8681640625	0.0999921703114524	462578	308	14	stim14_sf2_pattern2_cont2_shape1.png	1	136	0	614.795228405526	614.895220575838	0.0999921703114524	stim14_sf2_pattern2_cont2_shape1.png	2	2	2	1	1	4	0	0	0	0	0	0	0	0	0	0	0	0	1	6
226.3681640625	0.100007419143367	463602	309	3	stim03_sf1_pattern1_cont2_shape2.png	1	137	0	615.295208318123	615.395215737266	0.100007419143367	stim03_sf1_pattern1_cont2_shape2.png	1	1	2	2	1	3	0	0	0	0	0	0	0	0	0	0	0	0	1	6
226.8681640625	0.0999980352480634	464626	310	8	stim08_sf2_pattern1_cont1_shape1.png	1	138	0	615.795207878251	615.895205913499	0.0999980352480634	stim08_sf2_pattern1_cont1_shape1.png	2	1	1	1	1	2	0	0	0	0	0	0	0	0	0	0	0	0	1	6
227.3681640625	0.100004193429413	465650	311	10	stim10_sf2_pattern1_cont2_shape1.png	1	139	0	616.295196881498	616.395201074927	0.100004193429413	stim10_sf2_pattern1_cont2_shape1.png	2	1	2	1	1	4	0	0	0	0	0	0	0	0	0	0	0	0	1	6
227.8681640625	0.100018269275097	466674	312	6	stim06_sf1_pattern2_cont2_shape1.png	1	140	0	616.795171808897	616.895190078172	0.100018269275097	stim06_sf1_pattern2_cont2_shape1.png	1	2	2	1	1	3	0	0	0	0	0	0	0	0	0	0	0	0	1	6
228.3681640625	0.100001554206756	467698	313	1	stim01_sf1_pattern1_cont1_shape2.png	1	141	0	617.295183392145	617.395184946352	0.100001554206756	stim01_sf1_pattern1_cont1_shape2.png	1	1	1	2	1	1	0	0	0	0	0	0	0	0	0	0	0	0	1	6
228.8681640625	0.0999933432976832	468722	314	11	stim11_sf2_pattern1_cont2_shape2.png	1	142	0	617.795183538768	617.895176882066	0.0999933432976832	stim11_sf2_pattern1_cont2_shape2.png	2	1	2	2	1	4	0	0	0	0	0	0	0	0	0	0	0	0	1	6
229.3681640625	0.100003900182855	469746	315	2	stim02_sf1_pattern1_cont2_shape1.png	1	143	0	618.295161691882	618.395165592065	0.100003900182855	stim02_sf1_pattern1_cont2_shape1.png	1	1	2	1	1	3	0	0	0	0	0	0	0	0	0	0	0	0	1	6
229.8681640625	0.0999780944657687	470770	316	14	stim14_sf2_pattern2_cont2_shape1.png	1	144	0	618.795138378762	618.895116473228	0.0999780944657687	stim14_sf2_pattern2_cont2_shape1.png	2	2	2	1	1	4	0	0	0	0	0	0	0	0	0	0	0	0	1	6
230.3681640625	0.100001260960198	471794	317	12	stim12_sf2_pattern2_cont1_shape1.png	1	145	0	619.295123276554	619.395124537514	0.100001260960198	stim12_sf2_pattern2_cont1_shape1.png	2	2	1	1	1	2	0	0	0	0	0	0	0	0	0	0	0	0	1	6
230.8681640625	0.0999986217393598	472818	318	5	stim05_sf1_pattern2_cont1_shape2.png	1	146	0	619.795112866292	619.895111488031	0.0999986217393598	stim05_sf1_pattern2_cont1_shape2.png	1	2	1	2	1	1	0	0	0	0	0	0	0	0	0	0	0	0	1	6
231.3681640625	0.100006246157136	473842	319	13	stim13_sf2_pattern2_cont1_shape2.png	1	147	0	620.295089846419	620.395096092576	0.100006246157136	stim13_sf2_pattern2_cont1_shape2.png	2	2	1	2	1	2	0	0	0	0	0	0	0	0	0	0	0	0	1	6
231.8681640625	0.100000087973967	474866	320	3	stim03_sf1_pattern1_cont2_shape2.png	1	148	0	620.795087647068	620.895087735042	0.100000087973967	stim03_sf1_pattern1_cont2_shape2.png	1	1	2	2	1	3	0	0	0	0	0	0	0	0	0	0	0	0	1	6
232.3681640625	0.0999874783628911	475890	321	10	stim10_sf2_pattern1_cont2_shape1.png	1	149	0	621.295092192393	621.395079670756	0.0999874783628911	stim10_sf2_pattern1_cont2_shape1.png	2	1	2	1	1	4	0	0	0	0	0	0	0	0	0	0	0	0	1	6
232.8681640625	0.0999713497894845	476914	322	0	stim00_sf1_pattern1_cont1_shape1.png	1	150	0	621.795099963432	621.895071313222	0.0999713497894845	stim00_sf1_pattern1_cont1_shape1.png	1	1	1	1	1	1	0	0	0	0	0	0	0	0	0	0	0	0	1	6
233.3681640625	0.100003313687921	477938	323	8	stim08_sf2_pattern1_cont1_shape1.png	1	151	0	622.295094245121	622.395097558809	0.100003313687921	stim08_sf2_pattern1_cont1_shape1.png	2	1	1	1	1	2	0	0	0	0	0	0	0	0	0	0	0	0	1	6
233.8681640625	0.099991583816518	478962	324	7	stim07_sf1_pattern2_cont2_shape2.png	1	152	0	622.795089406549	622.895080990365	0.099991583816518	stim07_sf1_pattern2_cont2_shape2.png	1	2	2	2	1	3	0	0	0	0	0	0	0	0	0	0	0	0	1	6
234.3681640625	0.100004486675971	479986	325	4	stim04_sf1_pattern2_cont1_shape1.png	1	153	0	623.295077823301	623.395082309977	0.100004486675971	stim04_sf1_pattern2_cont1_shape1.png	1	2	1	1	1	1	0	0	0	0	0	0	0	0	0	0	0	0	1	6
234.8681640625	0.0999927568045678	481010	326	9	stim09_sf2_pattern1_cont1_shape2.png	1	154	0	623.795072104987	623.895064861792	0.0999927568045678	stim09_sf2_pattern1_cont1_shape2.png	2	1	1	2	1	2	0	0	0	0	0	0	0	0	0	0	0	0	1	6
235.3681640625	0.100007712389925	482034	327	15	stim15_sf2_pattern2_cont2_shape2.png	1	155	0	624.295078409794	624.395086122184	0.100007712389925	stim15_sf2_pattern2_cont2_shape2.png	2	2	2	2	1	4	0	0	0	0	0	0	0	0	0	0	0	0	1	6
235.8681640625	0.0999983284946211	483058	328	4	stim04_sf1_pattern2_cont1_shape1.png	1	156	0	624.79507914291	624.895077471405	0.0999983284946211	stim04_sf1_pattern2_cont1_shape1.png	1	2	1	1	1	1	0	0	0	0	0	0	0	0	0	0	0	0	1	6
236.3681640625	0.100005659664021	484082	329	15	stim15_sf2_pattern2_cont2_shape2.png	1	157	0	625.295058762258	625.395064421922	0.100005659664021	stim15_sf2_pattern2_cont2_shape2.png	2	2	2	2	1	4	0	0	0	0	0	0	0	0	0	0	0	0	1	6
236.8681640625	0.0999983284928021	485106	330	7	stim07_sf1_pattern2_cont2_shape2.png	1	158	0	625.795055096674	625.895053425167	0.0999983284928021	stim07_sf1_pattern2_cont2_shape2.png	1	2	2	2	1	3	0	0	0	0	0	0	0	0	0	0	0	0	1	6
237.3681640625	0.100000087973967	486130	331	13	stim13_sf2_pattern2_cont1_shape2.png	1	159	0	626.295055536544	626.395055624518	0.100000087973967	stim13_sf2_pattern2_cont1_shape2.png	2	2	1	2	1	2	0	0	0	0	0	0	0	0	0	0	0	0	1	6
237.8681640625	0.0999977419996867	487154	332	14	stim14_sf2_pattern2_cont2_shape1.png	1	160	0	626.795042780308	626.895040522308	0.0999977419996867	stim14_sf2_pattern2_cont2_shape1.png	2	2	2	1	1	4	0	0	0	0	0	0	0	0	0	0	0	0	1	6
238.3681640625	0.0999959825203405	488178	333	11	stim11_sf2_pattern1_cont2_shape2.png	1	161	0	627.295035889008	627.395031871529	0.0999959825203405	stim11_sf2_pattern1_cont2_shape2.png	2	1	2	2	1	4	0	0	0	0	0	0	0	0	0	0	0	0	1	6
238.86767578125	0.0999995014808519	489201	334	10	stim10_sf2_pattern1_cont2_shape1.png	1	162	0	627.795027531476	627.895027032957	0.0999995014808519	stim10_sf2_pattern1_cont2_shape1.png	2	1	2	1	1	4	0	0	0	0	0	0	0	0	0	0	0	0	1	6
239.36767578125	0.0999951027788484	490225	335	5	stim05_sf1_pattern2_cont1_shape2.png	1	163	0	628.295021813163	628.395016915942	0.0999951027788484	stim05_sf1_pattern2_cont1_shape2.png	1	2	1	2	1	1	0	0	0	0	0	0	0	0	0	0	0	0	1	6
239.86767578125	0.100000381220525	491249	336	8	stim08_sf2_pattern1_cont1_shape1.png	1	164	0	628.795011989396	628.895012370616	0.100000381220525	stim08_sf2_pattern1_cont1_shape1.png	2	1	1	1	1	2	0	0	0	0	0	0	0	0	0	0	0	0	1	6
240.36767578125	0.0999953960254061	492273	337	1	stim01_sf1_pattern1_cont1_shape2.png	1	165	0	629.295005098096	629.395000494122	0.0999953960254061	stim01_sf1_pattern1_cont1_shape2.png	1	1	1	2	1	1	0	0	0	0	0	0	0	0	0	0	0	0	1	6
240.86767578125	0.0999525819934206	493297	338	9	stim09_sf2_pattern1_cont1_shape2.png	1	166	0	629.794995567576	629.894948149569	0.0999525819934206	stim09_sf2_pattern1_cont1_shape2.png	2	1	1	2	1	2	0	0	0	0	0	0	0	0	0	0	0	0	1	6
241.36767578125	0.0999962757668982	494321	339	6	stim06_sf1_pattern2_cont2_shape1.png	1	167	0	630.294987796535	630.394984072302	0.0999962757668982	stim06_sf1_pattern2_cont2_shape1.png	1	2	2	1	1	3	0	0	0	0	0	0	0	0	0	0	0	0	1	6
241.86767578125	0.0999942230391753	495345	340	0	stim00_sf1_pattern1_cont1_shape1.png	1	168	0	630.794980025496	630.894974248535	0.0999942230391753	stim00_sf1_pattern1_cont1_shape1.png	1	1	1	1	1	1	0	0	0	0	0	0	0	0	0	0	0	0	1	6
242.36767578125	0.100004193429413	496369	341	3	stim03_sf1_pattern1_cont2_shape2.png	1	169	0	631.294964043545	631.394968236975	0.100004193429413	stim03_sf1_pattern1_cont2_shape2.png	1	1	2	2	1	3	0	0	0	0	0	0	0	0	0	0	0	0	1	6
242.86767578125	0.0999989149859175	497393	342	12	stim12_sf2_pattern2_cont1_shape1.png	1	170	0	631.79496506991	631.894963984896	0.0999989149859175	stim12_sf2_pattern2_cont1_shape1.png	2	2	1	1	1	2	0	0	0	0	0	0	0	0	0	0	0	0	1	6
243.36767578125	0.0999942230373563	498417	343	2	stim02_sf1_pattern1_cont2_shape1.png	1	171	0	632.29495905835	632.394953281388	0.0999942230373563	stim02_sf1_pattern1_cont2_shape1.png	1	1	2	1	1	3	0	0	0	0	0	0	0	0	0	0	0	0	1	6
255.392578125	0.100000674467083	523044	344	4	stim04_sf1_pattern2_cont1_shape1.png	2	0	0	644.319770962527	644.419771636994	0.100000674467083	stim04_sf1_pattern2_cont1_shape1.png	1	2	1	1	1	1	0	0	0	0	0	0	0	0	0	0	0	0	1	6
255.892578125	0.0999968622600136	524068	345	10	stim10_sf2_pattern1_cont2_shape1.png	2	1	0	644.819765830709	644.919762692969	0.0999968622600136	stim10_sf2_pattern1_cont2_shape1.png	2	1	2	1	1	4	0	0	0	0	0	0	0	0	0	0	0	0	1	6
256.392578125	0.0999912905699603	525092	346	13	stim13_sf2_pattern2_cont1_shape2.png	2	2	0	645.319763044865	645.419754335435	0.0999912905699603	stim13_sf2_pattern2_cont1_shape2.png	2	2	1	2	1	2	0	0	0	0	0	0	0	0	0	0	0	0	1	6
256.892578125	0.0999716430360422	526116	347	0	stim00_sf1_pattern1_cont1_shape1.png	2	3	0	645.819750875122	645.919722518158	0.0999716430360422	stim00_sf1_pattern1_cont1_shape1.png	1	1	1	1	1	1	0	0	0	0	0	0	0	0	0	0	0	0	1	6
257.392578125	0.0999971555047523	527140	348	7	stim07_sf1_pattern2_cont2_shape2.png	2	4	0	646.319740171615	646.41973732712	0.0999971555047523	stim07_sf1_pattern2_cont2_shape2.png	1	2	2	2	1	3	0	0	0	0	0	0	0	0	0	0	0	0	1	6
257.892578125	0.10000214070169	528164	349	12	stim12_sf2_pattern2_cont1_shape1.png	2	5	0	646.819730641095	646.919732781796	0.10000214070169	stim12_sf2_pattern2_cont1_shape1.png	2	2	1	1	1	2	0	0	0	0	0	0	0	0	0	0	0	0	1	6
258.392578125	0.100005659664021	529188	350	2	stim02_sf1_pattern1_cont2_shape1.png	2	6	0	647.319720230833	647.419725890497	0.100005659664021	stim02_sf1_pattern1_cont2_shape1.png	1	1	2	1	1	3	0	0	0	0	0	0	0	0	0	0	0	0	1	6
258.892578125	0.0999722295291576	530212	351	11	stim11_sf2_pattern1_cont2_shape2.png	2	7	0	647.819720963949	647.919693193478	0.0999722295291576	stim11_sf2_pattern1_cont2_shape2.png	2	1	2	2	1	4	0	0	0	0	0	0	0	0	0	0	0	0	1	6
259.392578125	0.100021201742493	531236	352	6	stim06_sf1_pattern2_cont2_shape1.png	2	8	0	648.319690026414	648.419711228156	0.100021201742493	stim06_sf1_pattern2_cont2_shape1.png	1	2	2	1	1	3	0	0	0	0	0	0	0	0	0	0	0	0	1	6
259.89208984375	0.100007125896809	532259	353	14	stim14_sf2_pattern2_cont2_shape1.png	2	9	0	648.819689293297	648.919696419194	0.100007125896809	stim14_sf2_pattern2_cont2_shape1.png	2	2	2	1	1	4	0	0	0	0	0	0	0	0	0	0	0	0	1	6
260.39208984375	0.0999780944639497	533283	354	1	stim01_sf1_pattern1_cont1_shape2.png	2	10	0	649.31969677109	649.419674865554	0.0999780944639497	stim01_sf1_pattern1_cont1_shape2.png	1	1	1	2	1	1	0	0	0	0	0	0	0	0	0	0	0	0	1	6
260.89208984375	0.0999772147242766	534307	355	5	stim05_sf1_pattern2_cont1_shape2.png	2	11	0	649.819669645762	649.919646860486	0.0999772147242766	stim05_sf1_pattern2_cont1_shape2.png	1	2	1	2	1	1	0	0	0	0	0	0	0	0	0	0	0	0	1	6
261.39208984375	0.100000381220525	535331	356	8	stim08_sf2_pattern1_cont1_shape1.png	2	12	0	650.319633429783	650.419633811003	0.100000381220525	stim08_sf2_pattern1_cont1_shape1.png	2	1	1	1	1	2	0	0	0	0	0	0	0	0	0	0	0	0	1	6
261.89208984375	0.100006539403694	536355	357	3	stim03_sf1_pattern1_cont2_shape2.png	2	13	0	650.819627124976	650.91963366438	0.100006539403694	stim03_sf1_pattern1_cont2_shape2.png	1	1	2	2	1	3	0	0	0	0	0	0	0	0	0	0	0	0	1	6
262.39208984375	0.0999989149859175	537379	358	9	stim09_sf2_pattern1_cont1_shape2.png	2	14	0	651.319621113418	651.419620028404	0.0999989149859175	stim09_sf2_pattern1_cont1_shape2.png	2	1	1	2	1	2	0	0	0	0	0	0	0	0	0	0	0	0	1	6
262.89208984375	0.100023840963331	538403	359	15	stim15_sf2_pattern2_cont2_shape2.png	2	15	1	651.819601026013	651.919624866976	0.100023840963331	stim15_sf2_pattern2_cont2_shape2.png	2	2	2	2	1	4	0	0	0	0	0	0	0	0	0	0	0	0	1	6
263.39208984375	0.10002032200282	539427	360	15	stim15_sf2_pattern2_cont2_shape2.png	2	16	1	652.31960263887	652.419622960873	0.10002032200282	stim15_sf2_pattern2_cont2_shape2.png	2	2	2	2	1	4	0	0	0	0	0	0	0	0	0	0	0	0	1	6
263.89208984375	0.100001847455133	540451	361	0	stim00_sf1_pattern1_cont1_shape1.png	2	17	2	652.819616568093	652.919618415548	0.100001847455133	stim00_sf1_pattern1_cont1_shape1.png	1	1	1	1	1	1	0	0	0	0	0	0	0	0	0	0	0	0	1	6
264.39208984375	0.0999927568045678	541475	362	12	stim12_sf2_pattern2_cont1_shape1.png	2	18	2	653.319625805367	653.419618562171	0.0999927568045678	stim12_sf2_pattern2_cont1_shape1.png	2	2	1	1	1	2	0	0	0	0	0	0	0	0	0	0	0	0	1	6
264.89208984375	0.100033811355388	542499	363	15	stim15_sf2_pattern2_cont2_shape2.png	2	19	0	653.819607770689	653.919641582044	0.100033811355388	stim15_sf2_pattern2_cont2_shape2.png	2	2	2	2	1	4	0	0	0	0	0	0	0	0	0	0	0	0	1	6
265.39208984375	0.099991583816518	543523	364	7	stim07_sf1_pattern2_cont2_shape2.png	2	20	0	654.319607037572	654.419598621389	0.099991583816518	stim07_sf1_pattern2_cont2_shape2.png	1	2	2	2	1	3	0	0	0	0	0	0	0	0	0	0	0	0	1	6
265.89208984375	0.0999953960254061	544547	365	15	stim15_sf2_pattern2_cont2_shape2.png	2	21	0	654.819621260041	654.919616656067	0.0999953960254061	stim15_sf2_pattern2_cont2_shape2.png	2	2	2	2	1	4	0	0	0	0	0	0	0	0	0	0	0	0	1	6
266.39208984375	0.0999484765397938	545571	366	5	stim05_sf1_pattern2_cont1_shape2.png	2	22	0	655.319605571338	655.419554047878	0.0999484765397938	stim05_sf1_pattern2_cont1_shape2.png	1	2	1	2	1	1	0	0	0	0	0	0	0	0	0	0	0	0	1	6
266.89208984375	0.100004486675971	546595	367	11	stim11_sf2_pattern1_cont2_shape2.png	2	23	0	655.819599266531	655.919603753207	0.100004486675971	stim11_sf2_pattern1_cont2_shape2.png	2	1	2	2	1	4	0	0	0	0	0	0	0	0	0	0	0	0	1	6
267.39208984375	0.100005659664021	547619	368	0	stim00_sf1_pattern1_cont1_shape1.png	2	24	0	656.319580938607	656.419586598271	0.100005659664021	stim00_sf1_pattern1_cont1_shape1.png	1	1	1	1	1	1	0	0	0	0	0	0	0	0	0	0	0	0	1	6
267.89208984375	0.100005952908759	548643	369	4	stim04_sf1_pattern2_cont1_shape1.png	2	25	0	656.8195840177	656.919589970608	0.100005952908759	stim04_sf1_pattern2_cont1_shape1.png	1	2	1	1	1	1	0	0	0	0	0	0	0	0	0	0	0	0	1	6
268.39208984375	0.100002727194806	549667	370	3	stim03_sf1_pattern1_cont2_shape2.png	2	26	0	657.319566862761	657.419569589956	0.100002727194806	stim03_sf1_pattern1_cont2_shape2.png	1	1	2	2	1	3	0	0	0	0	0	0	0	0	0	0	0	0	1	6
268.89208984375	0.0999962757650792	550691	371	8	stim08_sf2_pattern1_cont1_shape1.png	2	27	0	657.819566422892	657.919562698657	0.0999962757650792	stim08_sf2_pattern1_cont1_shape1.png	2	1	1	1	1	2	0	0	0	0	0	0	0	0	0	0	0	0	1	6
269.39208984375	0.0999956892719638	551715	372	10	stim10_sf2_pattern1_cont2_shape1.png	2	28	0	658.319558651852	658.419554341124	0.0999956892719638	stim10_sf2_pattern1_cont2_shape1.png	2	1	2	1	1	4	0	0	0	0	0	0	0	0	0	0	0	0	1	6
269.89208984375	0.0999968622600136	552739	373	9	stim09_sf2_pattern1_cont1_shape2.png	2	29	0	658.819550587565	658.919547449825	0.0999968622600136	stim09_sf2_pattern1_cont1_shape2.png	2	1	1	2	1	2	0	0	0	0	0	0	0	0	0	0	0	0	1	6
270.39208984375	0.099977801217392	553763	374	12	stim12_sf2_pattern2_cont1_shape1.png	2	30	0	659.319536365096	659.419514166313	0.099977801217392	stim12_sf2_pattern2_cont1_shape1.png	2	2	1	1	1	2	0	0	0	0	0	0	0	0	0	0	0	0	1	6
270.89208984375	0.0999980352462444	554787	375	6	stim06_sf1_pattern2_cont2_shape1.png	2	31	0	659.819534165745	659.919532200991	0.0999980352462444	stim06_sf1_pattern2_cont2_shape1.png	1	2	2	1	1	3	0	0	0	0	0	0	0	0	0	0	0	0	1	6
271.39208984375	0.0999965690116369	555811	376	13	stim13_sf2_pattern2_cont1_shape2.png	2	32	0	660.319529327173	660.419525896184	0.0999965690116369	stim13_sf2_pattern2_cont1_shape2.png	2	2	1	2	1	2	0	0	0	0	0	0	0	0	0	0	0	0	1	6
271.89208984375	0.0999997947274096	556835	377	2	stim02_sf1_pattern1_cont2_shape1.png	2	33	0	660.819517743925	660.919517538652	0.0999997947274096	stim02_sf1_pattern1_cont2_shape1.png	1	1	2	1	1	3	0	0	0	0	0	0	0	0	0	0	0	0	1	6
272.39208984375	0.10000214070169	557859	378	1	stim01_sf1_pattern1_cont1_shape2.png	2	34	0	661.319506453923	661.419508594625	0.10000214070169	stim01_sf1_pattern1_cont1_shape2.png	1	1	1	2	1	1	0	0	0	0	0	0	0	0	0	0	0	0	1	6
272.89208984375	0.100016216547374	558883	379	14	stim14_sf2_pattern2_cont2_shape1.png	2	35	0	661.819481967816	661.919498184363	0.100016216547374	stim14_sf2_pattern2_cont2_shape1.png	2	2	2	1	1	4	0	0	0	0	0	0	0	0	0	0	0	0	1	6
273.39208984375	0.100004779922529	559907	380	0	stim00_sf1_pattern1_cont1_shape1.png	2	36	0	662.319491791583	662.419496571505	0.100004779922529	stim00_sf1_pattern1_cont1_shape1.png	1	1	1	1	1	1	0	0	0	0	0	0	0	0	0	0	0	0	1	6
273.89208984375	0.0999995014808519	560931	381	1	stim01_sf1_pattern1_cont1_shape2.png	2	37	0	662.819488125999	662.91948762748	0.0999995014808519	stim01_sf1_pattern1_cont1_shape2.png	1	1	1	2	1	1	0	0	0	0	0	0	0	0	0	0	0	0	1	6
274.39208984375	0.100010938105697	561955	382	7	stim07_sf1_pattern2_cont2_shape2.png	2	38	0	663.319470091321	663.419481029427	0.100010938105697	stim07_sf1_pattern2_cont2_shape2.png	1	2	2	2	1	3	0	0	0	0	0	0	0	0	0	0	0	0	1	6
274.89208984375	0.0999953960254061	562979	383	11	stim11_sf2_pattern1_cont2_shape2.png	2	39	0	663.819472877165	663.91946827319	0.0999953960254061	stim11_sf2_pattern1_cont2_shape2.png	2	1	2	2	1	4	0	0	0	0	0	0	0	0	0	0	0	0	1	6
275.39208984375	0.0999748687499959	564003	384	3	stim03_sf1_pattern1_cont2_shape2.png	2	40	0	664.319468918333	664.419443787083	0.0999748687499959	stim03_sf1_pattern1_cont2_shape2.png	1	1	2	2	1	3	0	0	0	0	0	0	0	0	0	0	0	0	1	6
275.89208984375	0.0999936365460599	565027	385	5	stim05_sf1_pattern2_cont1_shape2.png	2	41	0	664.819441206511	664.919434843057	0.0999936365460599	stim05_sf1_pattern2_cont1_shape2.png	1	2	1	2	1	1	0	0	0	0	0	0	0	0	0	0	0	0	1	6
276.39208984375	0.0999646051132004	566051	386	13	stim13_sf2_pattern2_cont1_shape2.png	2	42	0	665.319447218071	665.419411823184	0.0999646051132004	stim13_sf2_pattern2_cont1_shape2.png	2	2	1	2	1	2	0	0	0	0	0	0	0	0	0	0	0	0	1	6
276.8916015625	0.0999692970617616	567074	387	6	stim06_sf1_pattern2_cont2_shape1.png	2	43	0	665.819433582095	665.919402879157	0.0999692970617616	stim06_sf1_pattern2_cont2_shape1.png	1	2	2	1	1	3	0	0	0	0	0	0	0	0	0	0	0	0	1	6
277.3916015625	0.100004486675971	568098	388	2	stim02_sf1_pattern1_cont2_shape1.png	2	44	0	666.319384756505	666.419389243181	0.100004486675971	stim02_sf1_pattern1_cont2_shape1.png	1	1	2	1	1	3	0	0	0	0	0	0	0	0	0	0	0	0	1	6
277.8916015625	0.0999848391420528	569122	389	14	stim14_sf2_pattern2_cont2_shape1.png	2	45	0	666.819404843909	666.919389683051	0.0999848391420528	stim14_sf2_pattern2_cont2_shape1.png	2	2	2	1	1	4	0	0	0	0	0	0	0	0	0	0	0	0	1	6
278.3916015625	0.0999959825203405	570146	390	8	stim08_sf2_pattern1_cont1_shape1.png	2	46	0	667.319376838841	667.419372821361	0.0999959825203405	stim08_sf2_pattern1_cont1_shape1.png	2	1	1	1	1	2	0	0	0	0	0	0	0	0	0	0	0	0	1	6
278.8916015625	0.100002727194806	571170	391	9	stim09_sf2_pattern1_cont1_shape2.png	2	47	0	667.819367308321	667.919370035515	0.100002727194806	stim09_sf2_pattern1_cont1_shape2.png	2	1	1	2	1	2	0	0	0	0	0	0	0	0	0	0	0	0	1	6
279.3916015625	0.100009178624532	572194	392	10	stim10_sf2_pattern1_cont2_shape1.png	2	48	0	668.319381237543	668.419390416168	0.100009178624532	stim10_sf2_pattern1_cont2_shape1.png	2	1	2	1	1	4	0	0	0	0	0	0	0	0	0	0	0	0	1	6
279.8916015625	0.0999924635580101	573218	393	15	stim15_sf2_pattern2_cont2_shape2.png	2	49	0	668.819383143647	668.919375607205	0.0999924635580101	stim15_sf2_pattern2_cont2_shape2.png	2	2	2	2	1	4	0	0	0	0	0	0	0	0	0	0	0	0	1	6
280.3916015625	0.100011231352255	574242	394	12	stim12_sf2_pattern2_cont1_shape1.png	2	50	0	669.319367454944	669.419378686296	0.100011231352255	stim12_sf2_pattern2_cont1_shape1.png	2	2	1	1	1	2	0	0	0	0	0	0	0	0	0	0	0	0	1	6
280.8916015625	0.100012111093747	575266	395	4	stim04_sf1_pattern2_cont1_shape1.png	2	51	0	669.819361150137	669.919373261231	0.100012111093747	stim04_sf1_pattern2_cont1_shape1.png	1	2	1	1	1	1	0	0	0	0	0	0	0	0	0	0	0	0	1	6
281.3916015625	0.099983666152184	576290	396	2	stim02_sf1_pattern1_cont2_shape1.png	2	52	0	670.319373026634	670.419356692786	0.099983666152184	stim02_sf1_pattern1_cont2_shape1.png	1	1	2	1	1	3	0	0	0	0	0	0	0	0	0	0	0	0	1	6
281.8916015625	0.0999956892719638	577314	397	9	stim09_sf2_pattern1_cont1_shape2.png	2	53	0	670.819375812478	670.91937150175	0.0999956892719638	stim09_sf2_pattern1_cont1_shape2.png	2	1	1	2	1	2	0	0	0	0	0	0	0	0	0	0	0	0	1	6
282.3916015625	0.100000967715459	578338	398	12	stim12_sf2_pattern2_cont1_shape1.png	2	54	0	671.31935132637	671.419352294086	0.100000967715459	stim12_sf2_pattern2_cont1_shape1.png	2	2	1	1	1	2	0	0	0	0	0	0	0	0	0	0	0	0	1	6
282.8916015625	0.0999942230373563	579362	399	14	stim14_sf2_pattern2_cont2_shape1.png	2	55	0	671.81935469871	671.919348921747	0.0999942230373563	stim14_sf2_pattern2_cont2_shape1.png	2	2	2	1	1	4	0	0	0	0	0	0	0	0	0	0	0	0	1	6
283.3916015625	0.100003900182855	580386	400	1	stim01_sf1_pattern1_cont1_shape2.png	2	56	0	672.319334611304	672.419338511487	0.100003900182855	stim01_sf1_pattern1_cont1_shape2.png	1	1	1	2	1	1	0	0	0	0	0	0	0	0	0	0	0	0	1	6
283.8916015625	0.0999971555065713	581410	401	6	stim06_sf1_pattern2_cont2_shape1.png	2	57	0	672.81933534442	672.919332499927	0.0999971555065713	stim06_sf1_pattern2_cont2_shape1.png	1	2	2	1	1	3	0	0	0	0	0	0	0	0	0	0	0	0	1	6
284.3916015625	0.099994516283914	582434	402	15	stim15_sf2_pattern2_cont2_shape2.png	2	58	0	673.319326986888	673.419321503172	0.099994516283914	stim15_sf2_pattern2_cont2_shape2.png	2	2	2	2	1	4	0	0	0	0	0	0	0	0	0	0	0	0	1	6
284.8916015625	0.0999918770630757	583458	403	8	stim08_sf2_pattern1_cont1_shape1.png	2	59	0	673.819322734809	673.919314611872	0.0999918770630757	stim08_sf2_pattern1_cont1_shape1.png	2	1	1	1	1	2	0	0	0	0	0	0	0	0	0	0	0	0	1	6
285.3916015625	0.0999977419996867	584482	404	7	stim07_sf1_pattern2_cont2_shape2.png	2	60	0	674.31931291104	674.41931065304	0.0999977419996867	stim07_sf1_pattern2_cont2_shape2.png	1	2	2	2	1	3	0	0	0	0	0	0	0	0	0	0	0	0	1	6
285.8916015625	0.0999995014808519	585506	405	3	stim03_sf1_pattern1_cont2_shape2.png	2	61	0	674.819302794027	674.919302295508	0.0999995014808519	stim03_sf1_pattern1_cont2_shape2.png	1	1	2	2	1	3	0	0	0	0	0	0	0	0	0	0	0	0	1	6
286.3916015625	0.100007712391744	586530	406	0	stim00_sf1_pattern1_cont1_shape1.png	2	62	0	675.319285052596	675.419292764987	0.100007712391744	stim00_sf1_pattern1_cont1_shape1.png	1	1	1	1	1	1	0	0	0	0	0	0	0	0	0	0	0	0	1	6
286.8916015625	0.0999995014808519	587554	407	5	stim05_sf1_pattern2_cont1_shape2.png	2	63	0	675.819286372207	675.919285873688	0.0999995014808519	stim05_sf1_pattern2_cont1_shape2.png	1	2	1	2	1	1	0	0	0	0	0	0	0	0	0	0	0	0	1	6
287.3916015625	0.0999986217411788	588578	408	11	stim11_sf2_pattern1_cont2_shape2.png	2	64	0	676.319280653894	676.419279275635	0.0999986217411788	stim11_sf2_pattern1_cont2_shape2.png	2	1	2	2	1	4	0	0	0	0	0	0	0	0	0	0	0	0	1	6
287.8916015625	0.0999997947274096	589602	409	10	stim10_sf2_pattern1_cont2_shape1.png	2	65	0	676.819273762594	676.919273557322	0.0999997947274096	stim10_sf2_pattern1_cont2_shape1.png	2	1	2	1	1	4	0	0	0	0	0	0	0	0	0	0	0	0	1	6
288.3916015625	0.0999962757650792	590626	410	13	stim13_sf2_pattern2_cont1_shape2.png	2	66	0	677.319265405062	677.419261680827	0.0999962757650792	stim13_sf2_pattern2_cont1_shape2.png	2	2	1	2	1	2	0	0	0	0	0	0	0	0	0	0	0	0	1	6
288.8916015625	0.0999980352462444	591650	411	4	stim04_sf1_pattern2_cont1_shape1.png	2	67	0	677.819256754281	677.919254789527	0.0999980352462444	stim04_sf1_pattern2_cont1_shape1.png	1	2	1	1	1	1	0	0	0	0	0	0	0	0	0	0	0	0	1	6
289.3916015625	0.0999851323867915	592674	412	3	stim03_sf1_pattern1_cont2_shape2.png	2	68	0	678.319240479084	678.419225611471	0.0999851323867915	stim03_sf1_pattern1_cont2_shape2.png	1	1	2	2	1	3	0	0	0	0	0	0	0	0	0	0	0	0	1	6
289.8916015625	0.0999543414745858	593698	413	10	stim10_sf2_pattern1_cont2_shape1.png	2	69	0	678.819241505447	678.919195846922	0.0999543414745858	stim10_sf2_pattern1_cont2_shape1.png	2	1	2	1	1	4	0	0	0	0	0	0	0	0	0	0	0	0	1	6
290.3916015625	0.0999907040768448	594722	414	6	stim06_sf1_pattern2_cont2_shape1.png	2	70	0	679.319240772331	679.419231476408	0.0999907040768448	stim06_sf1_pattern2_cont2_shape1.png	1	2	2	1	1	3	0	0	0	0	0	0	0	0	0	0	0	0	1	6
290.8916015625	0.0999983284946211	595746	415	11	stim11_sf2_pattern1_cont2_shape2.png	2	71	0	679.819230068822	679.919228397317	0.0999983284946211	stim11_sf2_pattern1_cont2_shape2.png	2	1	2	2	1	4	0	0	0	0	0	0	0	0	0	0	0	0	1	6
291.3916015625	0.10000096771364	596770	416	13	stim13_sf2_pattern2_cont1_shape2.png	2	72	0	680.319194439338	680.419195407052	0.10000096771364	stim13_sf2_pattern2_cont1_shape2.png	2	2	1	2	1	2	0	0	0	0	0	0	0	0	0	0	0	0	1	6
291.8916015625	0.0999921703114524	597794	417	9	stim09_sf2_pattern1_cont1_shape2.png	2	73	0	680.819174351933	680.919166522244	0.0999921703114524	stim09_sf2_pattern1_cont1_shape2.png	2	1	1	2	1	2	0	0	0	0	0	0	0	0	0	0	0	0	1	6
292.3916015625	0.100004486675971	598818	418	2	stim02_sf1_pattern1_cont2_shape1.png	2	74	0	681.319157196995	681.419161683671	0.100004486675971	stim02_sf1_pattern1_cont2_shape1.png	1	1	2	1	1	3	0	0	0	0	0	0	0	0	0	0	0	0	1	6
292.8916015625	0.100023547718592	599842	419	1	stim01_sf1_pattern1_cont1_shape2.png	2	75	0	681.819152358423	681.919175906141	0.100023547718592	stim01_sf1_pattern1_cont1_shape2.png	1	1	1	2	1	1	0	0	0	0	0	0	0	0	0	0	0	0	1	6
293.3916015625	0.100020615249377	600866	420	0	stim00_sf1_pattern1_cont1_shape1.png	2	76	0	682.319140188682	682.419160803931	0.100020615249377	stim00_sf1_pattern1_cont1_shape1.png	1	1	1	1	1	1	0	0	0	0	0	0	0	0	0	0	0	0	1	6
293.8916015625	0.0999924635561911	601890	421	7	stim07_sf1_pattern2_cont2_shape2.png	2	77	0	682.819141215046	682.919133678603	0.0999924635561911	stim07_sf1_pattern2_cont2_shape2.png	1	2	2	2	1	3	0	0	0	0	0	0	0	0	0	0	0	0	1	6
294.39111328125	0.100001847455133	602913	422	12	stim12_sf2_pattern2_cont1_shape1.png	2	78	0	683.3191384292	683.419140276656	0.100001847455133	stim12_sf2_pattern2_cont1_shape1.png	2	2	1	1	1	2	0	0	0	0	0	0	0	0	0	0	0	0	1	6
294.89111328125	0.0999956892719638	603937	423	15	stim15_sf2_pattern2_cont2_shape2.png	2	79	0	683.819152651671	683.919148340943	0.0999956892719638	stim15_sf2_pattern2_cont2_shape2.png	2	2	2	2	1	4	0	0	0	0	0	0	0	0	0	0	0	0	1	6
295.39111328125	0.100007419143367	604961	424	5	stim05_sf1_pattern2_cont1_shape2.png	2	80	0	684.319139015695	684.419146434839	0.100007419143367	stim05_sf1_pattern2_cont1_shape2.png	1	2	1	2	1	1	0	0	0	0	0	0	0	0	0	0	0	0	1	6
295.89111328125	0.0999889445956796	605985	425	8	stim08_sf2_pattern1_cont1_shape1.png	2	81	0	684.819134763617	684.919123708212	0.0999889445956796	stim08_sf2_pattern1_cont1_shape1.png	2	1	1	1	1	2	0	0	0	0	0	0	0	0	0	0	0	0	1	6
296.39111328125	0.100006539403694	607009	426	14	stim14_sf2_pattern2_cont2_shape1.png	2	82	0	685.319139895435	685.419146434839	0.100006539403694	stim14_sf2_pattern2_cont2_shape1.png	2	2	2	1	1	4	0	0	0	0	0	0	0	0	0	0	0	0	1	6
296.89111328125	0.0999939297907986	608033	427	4	stim04_sf1_pattern2_cont1_shape1.png	2	83	0	685.819143854267	685.919137784058	0.0999939297907986	stim04_sf1_pattern2_cont1_shape1.png	1	2	1	1	1	1	0	0	0	0	0	0	0	0	0	0	0	0	1	6
297.39111328125	0.0999986217411788	609057	428	0	stim00_sf1_pattern1_cont1_shape1.png	2	84	0	686.319136083226	686.419134704967	0.0999986217411788	stim00_sf1_pattern1_cont1_shape1.png	1	1	1	1	1	1	0	0	0	0	0	0	0	0	0	0	0	0	1	6
297.89111328125	0.0999701768014347	610081	429	1	stim01_sf1_pattern1_cont1_shape2.png	2	85	0	686.819120687771	686.919090864572	0.0999701768014347	stim01_sf1_pattern1_cont1_shape2.png	1	1	1	2	1	1	0	0	0	0	0	0	0	0	0	0	0	0	1	6
298.39111328125	0.10000214070169	611105	430	14	stim14_sf2_pattern2_cont2_shape1.png	2	86	0	687.319109984262	687.419112124964	0.10000214070169	stim14_sf2_pattern2_cont2_shape1.png	2	2	2	1	1	4	0	0	0	0	0	0	0	0	0	0	0	0	1	6
298.89111328125	0.0999980352462444	612129	431	4	stim04_sf1_pattern2_cont1_shape1.png	2	87	0	687.819103386209	687.919101421456	0.0999980352462444	stim04_sf1_pattern2_cont1_shape1.png	1	2	1	1	1	1	0	0	0	0	0	0	0	0	0	0	0	0	1	6
299.39111328125	0.10000096771364	613153	432	8	stim08_sf2_pattern1_cont1_shape1.png	2	88	0	688.319089750234	688.419090717947	0.10000096771364	stim08_sf2_pattern1_cont1_shape1.png	2	1	1	1	1	2	0	0	0	0	0	0	0	0	0	0	0	0	1	6
299.89111328125	0.0999992082342942	614177	433	10	stim10_sf2_pattern1_cont2_shape1.png	2	89	0	688.819087257636	688.91908646587	0.0999992082342942	stim10_sf2_pattern1_cont2_shape1.png	2	1	2	1	1	4	0	0	0	0	0	0	0	0	0	0	0	0	1	6
300.39111328125	0.100001554208575	615201	434	5	stim05_sf1_pattern2_cont1_shape2.png	2	90	0	689.319073914907	689.419075469115	0.100001554208575	stim05_sf1_pattern2_cont1_shape2.png	1	2	1	2	1	1	0	0	0	0	0	0	0	0	0	0	0	0	1	6
300.89111328125	0.099997448753129	616225	435	7	stim07_sf1_pattern2_cont2_shape2.png	2	91	0	689.819073768283	689.919071217037	0.099997448753129	stim07_sf1_pattern2_cont2_shape2.png	1	2	2	2	1	3	0	0	0	0	0	0	0	0	0	0	0	0	1	6
301.39111328125	0.100005952910578	617249	436	13	stim13_sf2_pattern2_cont1_shape2.png	2	92	0	690.319057786333	690.419063739244	0.100005952910578	stim13_sf2_pattern2_cont1_shape2.png	2	2	1	2	1	2	0	0	0	0	0	0	0	0	0	0	0	0	1	6
301.89111328125	0.0999962757668982	618273	437	6	stim06_sf1_pattern2_cont2_shape1.png	2	93	0	690.81905851945	690.919054795217	0.0999962757668982	stim06_sf1_pattern2_cont2_shape1.png	1	2	2	1	1	3	0	0	0	0	0	0	0	0	0	0	0	0	1	6
302.39111328125	0.10000096771364	619297	438	15	stim15_sf2_pattern2_cont2_shape2.png	2	94	0	691.319045469969	691.419046437682	0.10000096771364	stim15_sf2_pattern2_cont2_shape2.png	2	2	2	2	1	4	0	0	0	0	0	0	0	0	0	0	0	0	1	6
302.89111328125	0.100018855768212	620321	439	12	stim12_sf2_pattern2_cont1_shape1.png	2	95	0	691.819022450096	691.919041305864	0.100018855768212	stim12_sf2_pattern2_cont1_shape1.png	2	2	1	1	1	2	0	0	0	0	0	0	0	0	0	0	0	0	1	6
303.39111328125	0.100005073169086	621345	440	9	stim09_sf2_pattern1_cont1_shape2.png	2	96	0	692.319027288668	692.419032361837	0.100005073169086	stim09_sf2_pattern1_cont1_shape2.png	2	1	1	2	1	2	0	0	0	0	0	0	0	0	0	0	0	0	1	6
303.89111328125	0.0999977419996867	622369	441	3	stim03_sf1_pattern1_cont2_shape2.png	2	97	0	692.819026555551	692.919024297551	0.0999977419996867	stim03_sf1_pattern1_cont2_shape2.png	1	1	2	2	1	3	0	0	0	0	0	0	0	0	0	0	0	0	1	6
304.39111328125	0.100004486675971	623393	442	2	stim02_sf1_pattern1_cont2_shape1.png	2	98	0	693.319012626327	693.419017113003	0.100004486675971	stim02_sf1_pattern1_cont2_shape1.png	1	1	2	1	1	3	0	0	0	0	0	0	0	0	0	0	0	0	1	6
304.89111328125	0.0999907040768448	624417	443	11	stim11_sf2_pattern1_cont2_shape2.png	2	99	0	693.81900280256	693.918993506637	0.0999907040768448	stim11_sf2_pattern1_cont2_shape2.png	2	1	2	2	1	4	0	0	0	0	0	0	0	0	0	0	0	0	1	6
305.39111328125	0.0999511157588131	625441	444	13	stim13_sf2_pattern2_cont1_shape2.png	2	100	0	694.319006174899	694.418957290658	0.0999511157588131	stim13_sf2_pattern2_cont1_shape2.png	2	2	1	2	1	2	0	0	0	0	0	0	0	0	0	0	0	0	1	6
305.89111328125	0.100008298884859	626465	445	9	stim09_sf2_pattern1_cont1_shape2.png	2	101	0	694.818986673987	694.918994972872	0.100008298884859	stim09_sf2_pattern1_cont1_shape2.png	2	1	1	2	1	2	0	0	0	0	0	0	0	0	0	0	0	0	1	6
306.39111328125	0.0999968622600136	627489	446	14	stim14_sf2_pattern2_cont2_shape1.png	2	102	0	695.318963360867	695.418960223127	0.0999968622600136	stim14_sf2_pattern2_cont2_shape1.png	2	2	2	1	1	4	0	0	0	0	0	0	0	0	0	0	0	0	1	6
306.89111328125	0.100004486675971	628513	447	1	stim01_sf1_pattern1_cont1_shape2.png	2	103	0	695.818942100475	695.918946587151	0.100004486675971	stim01_sf1_pattern1_cont1_shape2.png	1	1	1	2	1	1	0	0	0	0	0	0	0	0	0	0	0	0	1	6
307.39111328125	0.0999637253735273	629537	448	11	stim11_sf2_pattern1_cont2_shape2.png	2	104	0	696.318968932555	696.418932657929	0.0999637253735273	stim11_sf2_pattern1_cont2_shape2.png	2	1	2	2	1	4	0	0	0	0	0	0	0	0	0	0	0	0	1	6
307.89111328125	0.0999986217411788	630561	449	5	stim05_sf1_pattern2_cont1_shape2.png	2	105	0	696.818920986705	696.918919608446	0.0999986217411788	stim05_sf1_pattern2_cont1_shape2.png	1	2	1	2	1	1	0	0	0	0	0	0	0	0	0	0	0	0	1	6
308.39111328125	0.100008592131417	631585	450	8	stim08_sf2_pattern1_cont1_shape1.png	2	106	0	697.318911162938	697.41891975507	0.100008592131417	stim08_sf2_pattern1_cont1_shape1.png	2	1	1	1	1	2	0	0	0	0	0	0	0	0	0	0	0	0	1	6
308.89111328125	0.0999983284928021	632609	451	15	stim15_sf2_pattern2_cont2_shape2.png	2	107	0	697.81890603112	697.918904359612	0.0999983284928021	stim15_sf2_pattern2_cont2_shape2.png	2	2	2	2	1	4	0	0	0	0	0	0	0	0	0	0	0	0	1	6
