onset	duration	onsetsample	eventnumber	stimnumber	stimname	blocknumber	trialnumber	istarget	time_stimon	time_stimoff	stimdur	stimfilename	spatial_freq	pattern	contrast	shape	is_fast_stream	category	ppt_1_response	ppt_1_keypressed	ppt_1_rt	ppt_1_correct	ppt_2_response	ppt_2_keypressed	ppt_2_rt	ppt_2_correct	button1	button2	button3	button4	task_part_number	subjectnr
417.4267578125	0.0999701768887462	854890	0	1	stim01_sf1_pattern1_cont1_shape2.png	0	0	0	388.800386322189	388.900356499078	0.0999701768887462	stim01_sf1_pattern1_cont1_shape2.png	1	1	1	2	1	3	0	0	0	0	0	0	0	0	0	0	0	0	1	19
417.93505859375	0.0999921703332802	855931	1	5	stim05_sf1_pattern2_cont1_shape2.png	0	1	0	389.308706149106	389.408698319439	0.0999921703332802	stim05_sf1_pattern2_cont1_shape2.png	1	2	1	2	1	3	0	0	0	0	0	0	0	0	0	0	0	0	1	19
418.43505859375	0.106180245958967	856955	2	15	stim15_sf2_pattern2_cont2_shape2.png	0	2	0	389.827513623473	389.933693869432	0.106180245958967	stim15_sf2_pattern2_cont2_shape2.png	2	2	2	2	1	4	0	0	0	0	0	0	0	0	0	0	0	0	1	19
418.9599609375	0.0999936365660687	858030	3	14	stim14_sf2_pattern2_cont2_shape1.png	0	3	0	390.333685717193	390.433679353759	0.0999936365660687	stim14_sf2_pattern2_cont2_shape1.png	2	2	2	1	1	2	0	0	0	0	0	0	0	0	0	0	0	0	1	19
419.4599609375	0.0999980352535204	859054	4	6	stim06_sf1_pattern2_cont2_shape1.png	0	4	0	390.83367472047	390.933672755724	0.0999980352535204	stim06_sf1_pattern2_cont2_shape1.png	1	2	2	1	1	2	0	0	0	0	0	0	0	0	0	0	0	0	1	19
419.9599609375	0.100039089684287	860078	5	3	stim03_sf1_pattern1_cont2_shape2.png	0	5	0	391.333622962564	391.433662052248	0.100039089684287	stim03_sf1_pattern1_cont2_shape2.png	1	1	2	2	1	4	0	0	0	0	0	0	0	0	0	0	0	0	1	19
420.4599609375	0.0999687106595957	861102	6	11	stim11_sf2_pattern1_cont2_shape2.png	0	6	0	391.833653900012	391.933622610672	0.0999687106595957	stim11_sf2_pattern1_cont2_shape2.png	2	1	2	2	1	4	0	0	0	0	0	0	0	0	0	0	0	0	1	19
420.9599609375	0.0999282427219441	862126	7	0	stim00_sf1_pattern1_cont1_shape1.png	0	7	0	392.33371474854	392.433642991262	0.0999282427219441	stim00_sf1_pattern1_cont1_shape1.png	1	1	1	1	1	1	0	0	0	0	0	0	0	0	0	0	0	0	1	19
421.4599609375	0.099944371249876	863150	8	8	stim08_sf2_pattern1_cont1_shape1.png	0	8	0	392.833633959286	392.933578330536	0.099944371249876	stim08_sf2_pattern1_cont1_shape1.png	2	1	1	1	1	1	0	0	0	0	0	0	0	0	0	0	0	0	1	19
421.9599609375	0.0999995014826709	864174	9	9	stim09_sf2_pattern1_cont1_shape2.png	0	9	0	393.33362472204	393.433624223522	0.0999995014826709	stim09_sf2_pattern1_cont1_shape2.png	2	1	1	2	1	3	0	0	0	0	0	0	0	0	0	0	0	0	1	19
422.4599609375	0.0999986217429978	865198	10	10	stim10_sf2_pattern1_cont2_shape1.png	0	10	0	393.833589385908	393.933588007651	0.0999986217429978	stim10_sf2_pattern1_cont2_shape1.png	2	1	2	1	1	2	0	0	0	0	0	0	0	0	0	0	0	0	1	19
422.9599609375	0.100003313677007	866222	11	13	stim13_sf2_pattern2_cont1_shape2.png	0	11	0	394.333601848859	394.433605162536	0.100003313677007	stim13_sf2_pattern2_cont1_shape2.png	2	2	1	2	1	3	0	0	0	0	0	0	0	0	0	0	0	0	1	19
423.4599609375	0.0999602065276122	867246	12	12	stim12_sf2_pattern2_cont1_shape1.png	0	12	0	394.833593784595	394.933553991123	0.0999602065276122	stim12_sf2_pattern2_cont1_shape1.png	2	2	1	1	1	1	0	0	0	0	0	0	0	0	0	0	0	0	1	19
423.9599609375	0.099968417413038	868270	13	7	stim07_sf1_pattern2_cont2_shape2.png	0	13	0	395.333588359546	395.433556776959	0.099968417413038	stim07_sf1_pattern2_cont2_shape2.png	1	2	2	2	1	4	0	0	0	0	0	0	0	0	0	0	0	0	1	19
424.4599609375	0.100012111055548	869294	14	2	stim02_sf1_pattern1_cont2_shape1.png	0	14	0	395.833557128855	395.933569239911	0.100012111055548	stim02_sf1_pattern1_cont2_shape1.png	1	1	2	1	1	2	0	0	0	0	0	0	0	0	0	0	0	0	1	19
424.9599609375	0.10001797597215	870318	15	4	stim04_sf1_pattern2_cont1_shape1.png	0	15	0	396.333542613182	396.433560589154	0.10001797597215	stim04_sf1_pattern2_cont1_shape1.png	1	2	1	1	1	1	0	0	0	0	0	0	0	0	0	0	0	0	1	19
425.4599609375	0.0999948095450236	871342	16	5	stim05_sf1_pattern2_cont1_shape2.png	0	16	0	396.833534548918	396.933529358463	0.0999948095450236	stim05_sf1_pattern2_cont1_shape2.png	1	2	1	2	1	3	0	0	0	0	0	0	0	0	0	0	0	0	1	19
425.9599609375	0.100001554204937	872366	17	3	stim03_sf1_pattern1_cont2_shape2.png	0	17	0	397.333543199671	397.433544753876	0.100001554204937	stim03_sf1_pattern1_cont2_shape2.png	1	1	2	2	1	4	0	0	0	0	0	0	0	0	0	0	0	0	1	19
426.4599609375	0.099988358138944	873390	18	2	stim02_sf1_pattern1_cont2_shape1.png	0	18	0	397.833547158491	397.933535516629	0.099988358138944	stim02_sf1_pattern1_cont2_shape1.png	1	1	2	1	1	2	0	0	0	0	0	0	0	0	0	0	0	0	1	19
426.95947265625	0.0999962757741741	874413	19	12	stim12_sf2_pattern2_cont1_shape1.png	0	19	0	398.333530296852	398.433526572626	0.0999962757741741	stim12_sf2_pattern2_cont1_shape1.png	2	2	1	1	1	1	0	0	0	0	0	0	0	0	0	0	0	0	1	19
427.45947265625	0.0999736958401627	875437	20	7	stim07_sf1_pattern2_cont2_shape2.png	0	20	0	398.833524871799	398.93349856764	0.0999736958401627	stim07_sf1_pattern2_cont2_shape2.png	1	2	2	2	1	4	0	0	0	0	0	0	0	0	0	0	0	0	1	19
427.95947265625	0.0999880648887483	876461	21	9	stim09_sf2_pattern1_cont1_shape2.png	0	21	0	399.333520033244	399.433508098133	0.0999880648887483	stim09_sf2_pattern1_cont1_shape2.png	2	1	1	2	1	3	0	0	0	0	0	0	0	0	0	0	0	0	1	19
428.45947265625	0.0999956892846967	877485	22	13	stim13_sf2_pattern2_cont1_shape2.png	0	22	0	399.833501998619	399.933497687904	0.0999956892846967	stim13_sf2_pattern2_cont1_shape2.png	2	2	1	2	1	3	0	0	0	0	0	0	0	0	0	0	0	0	1	19
428.95947265625	0.0999942230555462	878509	23	15	stim15_sf2_pattern2_cont2_shape2.png	0	23	0	400.333491001897	400.433485224952	0.0999942230555462	stim15_sf2_pattern2_cont2_shape2.png	2	2	2	2	1	4	0	0	0	0	0	0	0	0	0	0	0	0	1	19
429.45947265625	0.10007046699684	879533	24	8	stim08_sf2_pattern1_cont1_shape1.png	0	24	0	400.833406986938	400.933477453935	0.10007046699684	stim08_sf2_pattern1_cont1_shape1.png	2	1	1	1	1	1	0	0	0	0	0	0	0	0	0	0	0	0	1	19
429.95947265625	0.0999942230555462	880557	25	0	stim00_sf1_pattern1_cont1_shape1.png	0	25	0	401.33347194091	401.433466163966	0.0999942230555462	stim00_sf1_pattern1_cont1_shape1.png	1	1	1	1	1	1	0	0	0	0	0	0	0	0	0	0	0	0	1	19
430.45947265625	0.0999965690243698	881581	26	4	stim04_sf1_pattern2_cont1_shape1.png	0	26	0	401.833462703664	401.933459272688	0.0999965690243698	stim04_sf1_pattern2_cont1_shape1.png	1	2	1	1	1	1	0	0	0	0	0	0	0	0	0	0	0	0	1	19
430.95947265625	0.0999980352498824	882605	27	1	stim01_sf1_pattern1_cont1_shape2.png	0	27	0	402.333452000188	402.433450035438	0.0999980352498824	stim01_sf1_pattern1_cont1_shape2.png	1	1	1	2	1	3	0	0	0	0	0	0	0	0	0	0	0	0	1	19
431.45947265625	0.0999977420069627	883629	28	6	stim06_sf1_pattern2_cont2_shape1.png	0	28	0	402.833443349431	402.933441091438	0.0999977420069627	stim06_sf1_pattern2_cont2_shape1.png	1	2	2	1	1	2	0	0	0	0	0	0	0	0	0	0	0	0	1	19
431.95947265625	0.0999989149895555	884653	29	10	stim10_sf2_pattern1_cont2_shape1.png	0	29	0	403.333432939202	403.433431854191	0.0999989149895555	stim10_sf2_pattern1_cont2_shape1.png	2	1	2	1	1	2	0	0	0	0	0	0	0	0	0	0	0	0	1	19
432.45947265625	0.0999431982636452	885677	30	11	stim11_sf2_pattern1_cont2_shape2.png	0	30	0	403.833423701955	403.933366900219	0.0999431982636452	stim11_sf2_pattern1_cont2_shape2.png	2	1	2	2	1	4	0	0	0	0	0	0	0	0	0	0	0	0	1	19
432.95947265625	0.100042315385508	886701	31	14	stim14_sf2_pattern2_cont2_shape1.png	0	31	0	404.333368718344	404.433411033729	0.100042315385508	stim14_sf2_pattern2_cont2_shape1.png	2	2	2	1	1	2	0	0	0	0	0	0	0	0	0	0	0	0	1	19
433.45947265625	0.100017096239753	887725	32	5	stim05_sf1_pattern2_cont1_shape2.png	0	32	0	404.833407573427	404.933424669667	0.100017096239753	stim05_sf1_pattern2_cont1_shape2.png	1	2	1	2	1	3	0	0	0	0	0	0	0	0	0	0	0	0	1	19
433.95947265625	0.099997448760405	888749	33	0	stim00_sf1_pattern1_cont1_shape1.png	0	33	0	405.333392764511	405.433390213271	0.099997448760405	stim00_sf1_pattern1_cont1_shape1.png	1	1	1	1	1	1	0	0	0	0	0	0	0	0	0	0	0	0	1	19
434.45947265625	0.0999602065276122	889773	34	7	stim07_sf1_pattern2_cont2_shape2.png	0	34	0	405.833376196115	405.933336402642	0.0999602065276122	stim07_sf1_pattern2_cont2_shape2.png	1	2	2	2	1	4	0	0	0	0	0	0	0	0	0	0	0	0	1	19
434.95947265625	0.0999951027915813	890797	35	9	stim09_sf2_pattern1_cont1_shape2.png	0	35	0	406.333377222476	406.433372325268	0.0999951027915813	stim09_sf2_pattern1_cont1_shape2.png	2	1	1	2	1	3	0	0	0	0	0	0	0	0	0	0	0	0	1	19
435.45947265625	0.0999971555138472	891821	36	10	stim10_sf2_pattern1_cont2_shape1.png	0	36	0	406.833368864965	406.933366020479	0.0999971555138472	stim10_sf2_pattern1_cont2_shape1.png	2	1	2	1	1	2	0	0	0	0	0	0	0	0	0	0	0	0	1	19
435.95947265625	0.0999945163021039	892845	37	2	stim02_sf1_pattern1_cont2_shape1.png	0	37	0	407.333359334472	407.433353850774	0.0999945163021039	stim02_sf1_pattern1_cont2_shape1.png	1	1	2	1	1	2	0	0	0	0	0	0	0	0	0	0	0	0	1	19
436.45947265625	0.0999440779996803	893869	38	13	stim13_sf2_pattern2_cont1_shape2.png	0	38	0	407.83334921749	407.933293295489	0.0999440779996803	stim13_sf2_pattern2_cont1_shape2.png	2	2	1	2	1	3	0	0	0	0	0	0	0	0	0	0	0	0	1	19
436.95947265625	0.100002433940972	894893	39	15	stim15_sf2_pattern2_cont2_shape2.png	0	39	0	408.333337634274	408.433340068215	0.100002433940972	stim15_sf2_pattern2_cont2_shape2.png	2	2	2	2	1	4	0	0	0	0	0	0	0	0	0	0	0	0	1	19
437.45947265625	0.100027066600887	895917	40	6	stim06_sf1_pattern2_cont2_shape1.png	0	40	0	408.83331813342	408.933345200021	0.100027066600887	stim06_sf1_pattern2_cont2_shape1.png	1	2	2	1	1	2	0	0	0	0	0	0	0	0	0	0	0	0	1	19
437.95947265625	0.100017975975788	896941	41	11	stim11_sf2_pattern1_cont2_shape2.png	0	41	0	409.333300685288	409.433318661264	0.100017975975788	stim11_sf2_pattern1_cont2_shape2.png	2	1	2	2	1	4	0	0	0	0	0	0	0	0	0	0	0	0	1	19
438.45947265625	0.0999995014826709	897965	42	3	stim03_sf1_pattern1_cont2_shape2.png	0	42	0	409.833291154795	409.933290656278	0.0999995014826709	stim03_sf1_pattern1_cont2_shape2.png	1	1	2	2	1	4	0	0	0	0	0	0	0	0	0	0	0	0	1	19
438.95947265625	0.100018562468904	898989	43	4	stim04_sf1_pattern2_cont1_shape1.png	0	43	0	410.333276345875	410.433294908344	0.100018562468904	stim04_sf1_pattern2_cont1_shape1.png	1	2	1	1	1	1	0	0	0	0	0	0	0	0	0	0	0	0	1	19
439.45947265625	0.100007712368097	900013	44	8	stim08_sf2_pattern1_cont1_shape1.png	0	44	0	410.833266522135	410.933274234503	0.100007712368097	stim08_sf2_pattern1_cont1_shape1.png	2	1	1	1	1	1	0	0	0	0	0	0	0	0	0	0	0	0	1	19
439.95947265625	0.0999956892846967	901037	45	14	stim14_sf2_pattern2_cont2_shape1.png	0	45	0	411.333256405152	411.433252094437	0.0999956892846967	stim14_sf2_pattern2_cont2_shape1.png	2	2	2	1	1	2	0	0	0	0	0	0	0	0	0	0	0	0	1	19
440.45947265625	0.100016802993196	902061	46	12	stim12_sf2_pattern2_cont1_shape1.png	0	46	0	411.833249513871	411.933266316864	0.100016802993196	stim12_sf2_pattern2_cont1_shape1.png	2	2	1	1	1	1	0	0	0	0	0	0	0	0	0	0	0	0	1	19
440.95947265625	0.100024427385506	903085	47	1	stim01_sf1_pattern1_cont1_shape2.png	0	47	0	412.33323705092	412.433261478305	0.100024427385506	stim01_sf1_pattern1_cont1_shape2.png	1	1	1	2	1	3	0	0	0	0	0	0	0	0	0	0	0	0	1	19
441.45947265625	0.100000967711821	904109	48	11	stim11_sf2_pattern1_cont2_shape2.png	0	48	0	412.833257138267	412.933258105979	0.100000967711821	stim11_sf2_pattern1_cont2_shape2.png	2	1	2	2	1	4	0	0	0	0	0	0	0	0	0	0	0	0	1	19
441.95947265625	0.099988358138944	905133	49	1	stim01_sf1_pattern1_cont1_shape2.png	0	49	0	413.333253765937	413.433242124076	0.099988358138944	stim01_sf1_pattern1_cont1_shape2.png	1	1	1	2	1	3	0	0	0	0	0	0	0	0	0	0	0	0	1	19
442.45947265625	0.0999965690243698	906157	50	6	stim06_sf1_pattern2_cont2_shape1.png	0	50	0	413.833239250263	413.933235819288	0.0999965690243698	stim06_sf1_pattern2_cont2_shape1.png	1	2	2	1	1	2	0	0	0	0	0	0	0	0	0	0	0	0	1	19
442.95947265625	0.0999956892846967	907181	51	4	stim04_sf1_pattern2_cont1_shape1.png	0	51	0	414.333234411708	414.433230100993	0.0999956892846967	stim04_sf1_pattern2_cont1_shape1.png	1	2	1	1	1	1	0	0	0	0	0	0	0	0	0	0	0	0	1	19
443.45947265625	0.0999270697357133	908205	52	15	stim15_sf2_pattern2_cont2_shape2.png	0	52	0	414.833228400166	414.933155469902	0.0999270697357133	stim15_sf2_pattern2_cont2_shape2.png	2	2	2	2	1	4	0	0	0	0	0	0	0	0	0	0	0	0	1	19
443.958984375	0.0999936365624308	909228	53	2	stim02_sf1_pattern1_cont2_shape1.png	0	53	0	415.333209192559	415.433202829121	0.0999936365624308	stim02_sf1_pattern1_cont2_shape1.png	1	1	2	1	1	2	0	0	0	0	0	0	0	0	0	0	0	0	1	19
444.458984375	0.100007712368097	910252	54	0	stim00_sf1_pattern1_cont1_shape1.png	0	54	0	415.833198195836	415.933205908204	0.100007712368097	stim00_sf1_pattern1_cont1_shape1.png	1	1	1	1	1	1	0	0	0	0	0	0	0	0	0	0	0	0	1	19
444.958984375	0.0999977420069627	911276	55	5	stim05_sf1_pattern2_cont1_shape2.png	0	55	0	416.333187785604	416.43318552761	0.0999977420069627	stim05_sf1_pattern2_cont1_shape2.png	1	2	1	2	1	3	0	0	0	0	0	0	0	0	0	0	0	0	1	19
445.458984375	0.100001260958379	912300	56	3	stim03_sf1_pattern1_cont2_shape2.png	0	56	0	416.833174736159	416.933175997117	0.100001260958379	stim03_sf1_pattern1_cont2_shape2.png	1	1	2	2	1	4	0	0	0	0	0	0	0	0	0	0	0	0	1	19
445.958984375	0.0999901176110143	913324	57	12	stim12_sf2_pattern2_cont1_shape1.png	0	57	0	417.333171657079	417.43316177469	0.0999901176110143	stim12_sf2_pattern2_cont1_shape1.png	2	2	1	1	1	1	0	0	0	0	0	0	0	0	0	0	0	0	1	19
446.458984375	0.0999499429199204	914348	58	7	stim07_sf1_pattern2_cont2_shape2.png	0	58	0	417.833159780617	417.933109723537	0.0999499429199204	stim07_sf1_pattern2_cont2_shape2.png	1	2	2	2	1	4	0	0	0	0	0	0	0	0	0	0	0	0	1	19
446.958984375	0.0999997947292286	915372	59	8	stim08_sf2_pattern1_cont1_shape1.png	0	59	0	418.333150250124	418.433150044853	0.0999997947292286	stim08_sf2_pattern1_cont1_shape1.png	2	1	1	1	1	1	0	0	0	0	0	0	0	0	0	0	0	0	1	19
447.458984375	0.0999473037045391	916396	60	9	stim09_sf2_pattern1_cont1_shape2.png	0	60	0	418.8331430656	418.933090369304	0.0999473037045391	stim09_sf2_pattern1_cont1_shape2.png	2	1	1	2	1	3	0	0	0	0	0	0	0	0	0	0	0	0	1	19
447.958984375	0.0999968622672895	917420	61	14	stim14_sf2_pattern2_cont2_shape1.png	0	61	0	419.333132362124	419.433129224391	0.0999968622672895	stim14_sf2_pattern2_cont2_shape1.png	2	2	2	1	1	2	0	0	0	0	0	0	0	0	0	0	0	0	1	19
448.458984375	0.0999948095450236	918444	62	10	stim10_sf2_pattern1_cont2_shape1.png	0	62	0	419.833124884353	419.933119693898	0.0999948095450236	stim10_sf2_pattern1_cont2_shape1.png	2	1	2	1	1	2	0	0	0	0	0	0	0	0	0	0	0	0	1	19
448.958984375	0.0999989149895555	919468	63	13	stim13_sf2_pattern2_cont1_shape2.png	0	63	0	420.333112128155	420.433111043145	0.0999989149895555	stim13_sf2_pattern2_cont1_shape2.png	2	2	1	2	1	3	0	0	0	0	0	0	0	0	0	0	0	0	1	19
449.458984375	0.0999951027915813	920492	64	5	stim05_sf1_pattern2_cont1_shape2.png	0	64	0	420.833104650384	420.933099753176	0.0999951027915813	stim05_sf1_pattern2_cont1_shape2.png	1	2	1	2	1	3	0	0	0	0	0	0	0	0	0	0	0	0	1	19
449.958984375	0.100000967711821	921516	65	3	stim03_sf1_pattern1_cont2_shape2.png	0	65	0	421.333091307693	421.433092275405	0.100000967711821	stim03_sf1_pattern1_cont2_shape2.png	1	1	2	2	1	4	0	0	0	0	0	0	0	0	0	0	0	0	1	19
450.458984375	0.0999411455450172	922540	66	2	stim02_sf1_pattern1_cont2_shape1.png	0	66	0	421.833086175888	421.933027321433	0.0999411455450172	stim02_sf1_pattern1_cont2_shape1.png	1	1	2	1	1	2	0	0	0	0	0	0	0	0	0	0	0	0	1	19
450.958984375	0.0999965690243698	923564	67	8	stim08_sf2_pattern1_cont1_shape1.png	0	67	0	422.333077525134	422.433074094159	0.0999965690243698	stim08_sf2_pattern1_cont1_shape1.png	2	1	1	1	1	1	0	0	0	0	0	0	0	0	0	0	0	0	1	19
451.458984375	0.0999948095486616	924588	68	9	stim09_sf2_pattern1_cont1_shape2.png	0	68	0	422.833067408148	422.933062217697	0.0999948095486616	stim09_sf2_pattern1_cont1_shape2.png	2	1	1	2	1	3	0	0	0	0	0	0	0	0	0	0	0	0	1	19
451.958984375	0.0999992082361132	925612	69	15	stim15_sf2_pattern2_cont2_shape2.png	0	69	0	423.33306051687	423.433059725106	0.0999992082361132	stim15_sf2_pattern2_cont2_shape2.png	2	2	2	2	1	4	0	0	0	0	0	0	0	0	0	0	0	0	1	19
452.458984375	0.0999921703332802	926636	70	1	stim01_sf1_pattern1_cont1_shape2.png	0	70	0	423.833052745853	423.933044916186	0.0999921703332802	stim01_sf1_pattern1_cont1_shape2.png	1	1	1	2	1	3	0	0	0	0	0	0	0	0	0	0	0	0	1	19
452.958984375	0.0999842526907742	927660	71	13	stim13_sf2_pattern2_cont1_shape2.png	0	71	0	424.333045854575	424.433030107266	0.0999842526907742	stim13_sf2_pattern2_cont1_shape2.png	2	2	1	2	1	3	0	0	0	0	0	0	0	0	0	0	0	0	1	19
453.458984375	0.0999352806211391	928684	72	7	stim07_sf1_pattern2_cont2_shape2.png	0	72	0	424.833038376804	424.932973657425	0.0999352806211391	stim07_sf1_pattern2_cont2_shape2.png	1	2	2	2	1	4	0	0	0	0	0	0	0	0	0	0	0	0	1	19
453.958984375	0.100005073156353	929708	73	4	stim04_sf1_pattern2_cont1_shape1.png	0	73	0	425.333007439356	425.433012512513	0.100005073156353	stim04_sf1_pattern2_cont1_shape1.png	1	2	1	1	1	1	0	0	0	0	0	0	0	0	0	0	0	0	1	19
454.458984375	0.100015336764045	930732	74	10	stim10_sf2_pattern1_cont2_shape1.png	0	74	0	425.83298588578	425.933001222544	0.100015336764045	stim10_sf2_pattern1_cont2_shape1.png	2	1	2	1	1	2	0	0	0	0	0	0	0	0	0	0	0	0	1	19
454.958984375	0.100012404302106	931756	75	0	stim00_sf1_pattern1_cont1_shape1.png	0	75	0	426.332988085127	426.433000489429	0.100012404302106	stim00_sf1_pattern1_cont1_shape1.png	1	1	1	1	1	1	0	0	0	0	0	0	0	0	0	0	0	0	1	19
455.458984375	0.0999719363644545	932780	76	11	stim11_sf2_pattern1_cont2_shape2.png	0	76	0	426.832967704533	426.932939640898	0.0999719363644545	stim11_sf2_pattern1_cont2_shape2.png	2	1	2	2	1	4	0	0	0	0	0	0	0	0	0	0	0	0	1	19
455.958984375	0.100015336760407	933804	77	12	stim12_sf2_pattern2_cont1_shape1.png	0	77	0	427.33295905378	427.43297439054	0.100015336760407	stim12_sf2_pattern2_cont1_shape1.png	2	2	1	1	1	1	0	0	0	0	0	0	0	0	0	0	0	0	1	19
456.458984375	0.0999980352498824	934828	78	6	stim06_sf1_pattern2_cont2_shape1.png	0	78	0	427.832975328929	427.932973364179	0.0999980352498824	stim06_sf1_pattern2_cont2_shape1.png	1	2	2	1	1	2	0	0	0	0	0	0	0	0	0	0	0	0	1	19
456.958984375	0.100002433940972	935852	79	14	stim14_sf2_pattern2_cont2_shape1.png	0	79	0	428.332963745714	428.432966179655	0.100002433940972	stim14_sf2_pattern2_cont2_shape1.png	2	2	2	1	1	2	0	0	0	0	0	0	0	0	0	0	0	0	1	19
457.458984375	0.0999989149895555	936876	80	11	stim11_sf2_pattern1_cont2_shape2.png	0	80	0	428.83296066663	428.93295958162	0.0999989149895555	stim11_sf2_pattern1_cont2_shape2.png	2	1	2	2	1	4	0	0	0	0	0	0	0	0	0	0	0	0	1	19
457.958984375	0.099995396038139	937900	81	7	stim07_sf1_pattern2_cont2_shape2.png	0	81	0	429.332951429384	429.432946825422	0.099995396038139	stim07_sf1_pattern2_cont2_shape2.png	1	2	2	2	1	4	0	0	0	0	0	0	0	0	0	0	0	0	1	19
458.458984375	0.100001847447857	938924	82	14	stim14_sf2_pattern2_cont2_shape1.png	0	82	0	429.832939259679	429.932941107127	0.100001847447857	stim14_sf2_pattern2_cont2_shape1.png	2	2	2	1	1	2	0	0	0	0	0	0	0	0	0	0	0	0	1	19
458.958984375	0.099997448760405	939948	83	9	stim09_sf2_pattern1_cont1_shape2.png	0	83	0	430.332927676463	430.432925125224	0.099997448760405	stim09_sf2_pattern1_cont1_shape2.png	2	1	1	2	1	3	0	0	0	0	0	0	0	0	0	0	0	0	1	19
459.458984375	0.0999704701353039	940972	84	2	stim02_sf1_pattern1_cont2_shape1.png	0	84	0	430.83291814597	430.932888616106	0.0999704701353039	stim02_sf1_pattern1_cont2_shape1.png	1	1	2	1	1	2	0	0	0	0	0	0	0	0	0	0	0	0	1	19
459.958984375	0.0999951027952193	941996	85	12	stim12_sf2_pattern2_cont1_shape1.png	0	85	0	431.332910668199	431.432905770995	0.0999951027952193	stim12_sf2_pattern2_cont1_shape1.png	2	2	1	1	1	1	0	0	0	0	0	0	0	0	0	0	0	0	1	19
460.458984375	0.0999968622709275	943020	86	0	stim00_sf1_pattern1_cont1_shape1.png	0	86	0	431.832899084984	431.932895947255	0.0999968622709275	stim00_sf1_pattern1_cont1_shape1.png	1	1	1	1	1	1	0	0	0	0	0	0	0	0	0	0	0	0	1	19
460.95849609375	0.0999986217429978	944043	87	12	stim12_sf2_pattern2_cont1_shape1.png	0	87	1	432.332890727477	432.43288934922	0.0999986217429978	stim12_sf2_pattern2_cont1_shape1.png	2	2	1	1	1	1	0	0	0	0	0	0	0	0	0	0	0	0	1	19
461.45849609375	0.0999478901976545	945067	88	12	stim12_sf2_pattern2_cont1_shape1.png	0	88	1	432.832879144262	432.932827034459	0.0999478901976545	stim12_sf2_pattern2_cont1_shape1.png	2	2	1	1	1	1	0	0	0	0	0	0	0	0	0	0	0	0	1	19
461.95849609375	0.0999945163021039	946091	89	8	stim08_sf2_pattern1_cont1_shape1.png	0	89	2	433.332871959738	433.43286647604	0.0999945163021039	stim08_sf2_pattern1_cont1_shape1.png	2	1	1	1	1	1	0	0	0	0	0	0	0	0	0	0	0	0	1	19
462.45849609375	0.0999358671142545	947115	90	15	stim15_sf2_pattern2_cont2_shape2.png	0	90	2	433.832863895474	433.932799762588	0.0999358671142545	stim15_sf2_pattern2_cont2_shape2.png	2	2	2	2	1	4	0	0	0	0	0	0	0	0	0	0	0	0	1	19
462.95849609375	0.0999995014826709	948139	91	8	stim08_sf2_pattern1_cont1_shape1.png	0	91	0	434.332852605505	434.432852106987	0.0999995014826709	stim08_sf2_pattern1_cont1_shape1.png	2	1	1	1	1	1	0	0	0	0	0	0	0	0	0	0	0	0	1	19
463.45849609375	0.0999977420069627	949163	92	1	stim01_sf1_pattern1_cont1_shape2.png	0	92	0	434.832843954751	434.932841696758	0.0999977420069627	stim01_sf1_pattern1_cont1_shape2.png	1	1	1	2	1	3	0	0	0	0	0	0	0	0	0	0	0	0	1	19
463.95849609375	0.0999995014826709	950187	93	3	stim03_sf1_pattern1_cont2_shape2.png	0	93	0	435.332834424258	435.432833925741	0.0999995014826709	stim03_sf1_pattern1_cont2_shape2.png	1	1	2	2	1	4	0	0	0	0	0	0	0	0	0	0	0	0	1	19
464.45849609375	0.0999968622672895	951211	94	13	stim13_sf2_pattern2_cont1_shape2.png	0	94	0	435.832825187012	435.932822049279	0.0999968622672895	stim13_sf2_pattern2_cont1_shape2.png	2	2	1	2	1	3	0	0	0	0	0	0	0	0	0	0	0	0	1	19
464.95849609375	0.0999992082361132	952235	95	6	stim06_sf1_pattern2_cont2_shape1.png	0	95	0	436.332815949765	436.432815158001	0.0999992082361132	stim06_sf1_pattern2_cont2_shape1.png	1	2	2	1	1	2	0	0	0	0	0	0	0	0	0	0	0	0	1	19
465.45849609375	0.0999470104579814	953259	96	15	stim15_sf2_pattern2_cont2_shape2.png	0	96	0	436.832806712519	436.932753722976	0.0999470104579814	stim15_sf2_pattern2_cont2_shape2.png	2	2	2	2	1	4	0	0	0	0	0	0	0	0	0	0	0	0	1	19
465.95849609375	0.0999983285000781	954283	97	5	stim05_sf1_pattern2_cont1_shape2.png	0	97	0	437.332798061761	437.432796390262	0.0999983285000781	stim05_sf1_pattern2_cont1_shape2.png	1	2	1	2	1	3	0	0	0	0	0	0	0	0	0	0	0	0	1	19
466.45849609375	0.0999939298089885	955307	98	4	stim04_sf1_pattern2_cont1_shape1.png	0	98	0	437.832787944779	437.932781874588	0.0999939298089885	stim04_sf1_pattern2_cont1_shape1.png	1	2	1	1	1	1	0	0	0	0	0	0	0	0	0	0	0	0	1	19
466.95849609375	0.0999962757778121	956331	99	10	stim10_sf2_pattern1_cont2_shape1.png	0	99	0	438.332780173761	438.432776449539	0.0999962757778121	stim10_sf2_pattern1_cont2_shape1.png	2	1	2	1	1	2	0	0	0	0	0	0	0	0	0	0	0	0	1	19
467.45849609375	0.0999945163021039	957355	100	3	stim03_sf1_pattern1_cont2_shape2.png	0	100	0	438.832771816251	438.932766332553	0.0999945163021039	stim03_sf1_pattern1_cont2_shape2.png	1	1	2	2	1	4	0	0	0	0	0	0	0	0	0	0	0	0	1	19
467.95849609375	0.0999962757741741	958379	101	8	stim08_sf2_pattern1_cont1_shape1.png	0	101	0	439.332766977695	439.43276325347	0.0999962757741741	stim08_sf2_pattern1_cont1_shape1.png	2	1	1	1	1	1	0	0	0	0	0	0	0	0	0	0	0	0	1	19
468.45849609375	0.0999824932150659	959403	102	12	stim12_sf2_pattern2_cont1_shape1.png	0	102	0	439.832732228053	439.932714721268	0.0999824932150659	stim12_sf2_pattern2_cont1_shape1.png	2	2	1	1	1	1	0	0	0	0	0	0	0	0	0	0	0	0	1	19
468.95849609375	0.100016802993196	960427	103	9	stim09_sf2_pattern1_cont1_shape2.png	0	103	0	440.332726509754	440.432743312747	0.100016802993196	stim09_sf2_pattern1_cont1_shape2.png	2	1	1	2	1	3	0	0	0	0	0	0	0	0	0	0	0	0	1	19
469.45849609375	0.0999909973506874	961451	104	2	stim02_sf1_pattern1_cont2_shape1.png	0	104	0	440.83271287382	440.932703871171	0.0999909973506874	stim02_sf1_pattern1_cont2_shape1.png	1	1	2	1	1	2	0	0	0	0	0	0	0	0	0	0	0	0	1	19
469.95849609375	0.10002208142032	962475	105	0	stim00_sf1_pattern1_cont1_shape1.png	0	105	0	441.332683989094	441.432706070515	0.10002208142032	stim00_sf1_pattern1_cont1_shape1.png	1	1	1	1	1	1	0	0	0	0	0	0	0	0	0	0	0	0	1	19
470.45849609375	0.100036157222348	963499	106	14	stim14_sf2_pattern2_cont2_shape1.png	0	106	0	441.832691173622	441.932727330845	0.100036157222348	stim14_sf2_pattern2_cont2_shape1.png	2	2	2	1	1	2	0	0	0	0	0	0	0	0	0	0	0	0	1	19
470.95849609375	0.100020615187532	964523	107	6	stim06_sf1_pattern2_cont2_shape1.png	0	107	0	442.332680470146	442.432701085334	0.100020615187532	stim06_sf1_pattern2_cont2_shape1.png	1	2	2	1	1	2	0	0	0	0	0	0	0	0	0	0	0	0	1	19
471.45849609375	0.0999716431178967	965547	108	1	stim01_sf1_pattern1_cont1_shape2.png	0	108	0	442.832697331785	442.932668974903	0.0999716431178967	stim01_sf1_pattern1_cont1_shape2.png	1	1	1	2	1	3	0	0	0	0	0	0	0	0	0	0	0	0	1	19
471.95849609375	0.0999989149895555	966571	109	15	stim15_sf2_pattern2_cont2_shape2.png	0	109	0	443.332688681032	443.432687596021	0.0999989149895555	stim15_sf2_pattern2_cont2_shape2.png	2	2	2	2	1	4	0	0	0	0	0	0	0	0	0	0	0	0	1	19
472.45849609375	0.0999924635798379	967595	110	10	stim10_sf2_pattern1_cont2_shape1.png	0	110	0	443.832686774931	443.932679238511	0.0999924635798379	stim10_sf2_pattern1_cont2_shape1.png	2	1	2	1	1	2	0	0	0	0	0	0	0	0	0	0	0	0	1	19
472.95849609375	0.0999968622672895	968619	111	11	stim11_sf2_pattern1_cont2_shape2.png	0	111	0	444.332671672768	444.432668535035	0.0999968622672895	stim11_sf2_pattern1_cont2_shape2.png	2	1	2	2	1	4	0	0	0	0	0	0	0	0	0	0	0	0	1	19
473.45849609375	0.0999965690243698	969643	112	13	stim13_sf2_pattern2_cont1_shape2.png	0	112	0	444.832668300438	444.932664869462	0.0999965690243698	stim13_sf2_pattern2_cont1_shape2.png	2	2	1	2	1	3	0	0	0	0	0	0	0	0	0	0	0	0	1	19
473.95849609375	0.0999971555138472	970667	113	5	stim05_sf1_pattern2_cont1_shape2.png	0	113	0	445.332660822667	445.432657978181	0.0999971555138472	stim05_sf1_pattern2_cont1_shape2.png	1	2	1	2	1	3	0	0	0	0	0	0	0	0	0	0	0	0	1	19
474.45849609375	0.0999936365624308	971691	114	7	stim07_sf1_pattern2_cont2_shape2.png	0	114	0	445.832643374535	445.932637011098	0.0999936365624308	stim07_sf1_pattern2_cont2_shape2.png	1	2	2	2	1	4	0	0	0	0	0	0	0	0	0	0	0	0	1	19
474.95849609375	0.0999431982636452	972715	115	3	stim03_sf1_pattern1_cont2_shape2.png	0	115	1	446.332639415716	446.432582613979	0.0999431982636452	stim03_sf1_pattern1_cont2_shape2.png	1	1	2	2	1	4	0	0	0	0	0	0	0	0	0	0	0	0	1	19
475.45849609375	0.0999599132810545	973739	116	3	stim03_sf1_pattern1_cont2_shape2.png	0	116	1	446.832623433813	446.932583347094	0.0999599132810545	stim03_sf1_pattern1_cont2_shape2.png	1	1	2	2	1	4	0	0	0	0	0	0	0	0	0	0	0	0	1	19
475.95849609375	0.0999971555138472	974763	117	8	stim08_sf2_pattern1_cont1_shape1.png	0	117	2	447.33261390332	447.432611058834	0.0999971555138472	stim08_sf2_pattern1_cont1_shape1.png	2	1	1	1	1	1	0	0	0	0	0	0	0	0	0	0	0	0	1	19
476.45849609375	0.0999672444268072	975787	118	6	stim06_sf1_pattern2_cont2_shape1.png	0	118	2	447.832606132302	447.932573376729	0.0999672444268072	stim06_sf1_pattern2_cont2_shape1.png	1	2	2	1	1	2	0	0	0	0	0	0	0	0	0	0	0	0	1	19
476.95849609375	0.0999968622709275	976811	119	4	stim04_sf1_pattern2_cont1_shape1.png	0	119	0	448.33259572207	448.43259258434	0.0999968622709275	stim04_sf1_pattern2_cont1_shape1.png	1	2	1	1	1	1	0	0	0	0	0	0	0	0	0	0	0	0	1	19
477.45849609375	0.0999924635798379	977835	120	2	stim02_sf1_pattern1_cont2_shape1.png	0	120	0	448.832583259118	448.932575722698	0.0999924635798379	stim02_sf1_pattern1_cont2_shape1.png	1	1	2	1	1	2	0	0	0	0	0	0	0	0	0	0	0	0	1	19
477.9580078125	0.0999942230555462	978858	121	14	stim14_sf2_pattern2_cont2_shape1.png	0	121	0	449.33257636784	449.432570590896	0.0999942230555462	stim14_sf2_pattern2_cont2_shape1.png	2	2	2	1	1	2	0	0	0	0	0	0	0	0	0	0	0	0	1	19
478.4580078125	0.0999654849547369	979882	122	9	stim09_sf2_pattern1_cont1_shape2.png	0	122	0	449.832569183312	449.932534668267	0.0999654849547369	stim09_sf2_pattern1_cont1_shape2.png	2	1	1	2	1	3	0	0	0	0	0	0	0	0	0	0	0	0	1	19
478.9580078125	0.099997448760405	980906	123	6	stim06_sf1_pattern2_cont2_shape1.png	0	123	0	450.332558479837	450.432555928597	0.099997448760405	stim06_sf1_pattern2_cont2_shape1.png	1	2	2	1	1	2	0	0	0	0	0	0	0	0	0	0	0	0	1	19
479.4580078125	0.0999951027952193	981930	124	3	stim03_sf1_pattern1_cont2_shape2.png	0	124	0	450.832550415573	450.932545518368	0.0999951027952193	stim03_sf1_pattern1_cont2_shape2.png	1	1	2	2	1	4	0	0	0	0	0	0	0	0	0	0	0	0	1	19
479.9580078125	0.0999780945312523	982954	125	1	stim01_sf1_pattern1_cont1_shape2.png	0	125	0	451.332558479837	451.432536574368	0.0999780945312523	stim01_sf1_pattern1_cont1_shape2.png	1	1	1	2	1	3	0	0	0	0	0	0	0	0	0	0	0	0	1	19
480.4580078125	0.099997448760405	983978	126	13	stim13_sf2_pattern2_cont1_shape2.png	0	126	0	451.832530474851	451.932527923611	0.099997448760405	stim13_sf2_pattern2_cont1_shape2.png	2	2	1	2	1	3	0	0	0	0	0	0	0	0	0	0	0	0	1	19
480.9580078125	0.099997448760405	985002	127	0	stim00_sf1_pattern1_cont1_shape1.png	0	127	0	452.332521237604	452.432518686364	0.099997448760405	stim00_sf1_pattern1_cont1_shape1.png	1	1	1	1	1	1	0	0	0	0	0	0	0	0	0	0	0	0	1	19
481.4580078125	0.0999936365660687	986026	128	4	stim04_sf1_pattern2_cont1_shape1.png	0	128	0	452.832514932816	452.932508569382	0.0999936365660687	stim04_sf1_pattern2_cont1_shape1.png	1	2	1	1	1	1	0	0	0	0	0	0	0	0	0	0	0	0	1	19
481.9580078125	0.0999936365660687	987050	129	12	stim12_sf2_pattern2_cont1_shape1.png	0	129	0	453.332507161798	453.432500798364	0.0999936365660687	stim12_sf2_pattern2_cont1_shape1.png	2	2	1	1	1	1	0	0	0	0	0	0	0	0	0	0	0	0	1	19
482.4580078125	0.0999956892846967	988074	130	7	stim07_sf1_pattern2_cont2_shape2.png	0	130	0	453.83249528534	453.932490974625	0.0999956892846967	stim07_sf1_pattern2_cont2_shape2.png	1	2	2	2	1	4	0	0	0	0	0	0	0	0	0	0	0	0	1	19
482.9580078125	0.100000674468902	989098	131	5	stim05_sf1_pattern2_cont1_shape2.png	0	131	0	454.332481649402	454.432482323871	0.100000674468902	stim05_sf1_pattern2_cont1_shape2.png	1	2	1	2	1	3	0	0	0	0	0	0	0	0	0	0	0	0	1	19
483.4580078125	0.100011231319513	990122	132	8	stim08_sf2_pattern1_cont1_shape1.png	0	132	0	454.832459509336	454.932470740656	0.100011231319513	stim08_sf2_pattern1_cont1_shape1.png	2	1	1	1	1	1	0	0	0	0	0	0	0	0	0	0	0	0	1	19
483.9580078125	0.100015630010603	991146	133	11	stim11_sf2_pattern1_cont2_shape2.png	0	133	0	455.332451151826	455.432466781836	0.100015630010603	stim11_sf2_pattern1_cont2_shape2.png	2	1	2	2	1	4	0	0	0	0	0	0	0	0	0	0	0	0	1	19
484.4580078125	0.100022667909798	992170	134	15	stim15_sf2_pattern2_cont2_shape2.png	0	134	0	455.832435169923	455.932457837833	0.100022667909798	stim15_sf2_pattern2_cont2_shape2.png	2	2	2	2	1	4	0	0	0	0	0	0	0	0	0	0	0	0	1	19
484.9580078125	0.0999980352535204	993194	135	10	stim10_sf2_pattern1_cont2_shape1.png	0	135	0	456.332424173201	456.432422208454	0.0999980352535204	stim10_sf2_pattern1_cont2_shape1.png	2	1	2	1	1	2	0	0	0	0	0	0	0	0	0	0	0	0	1	19
485.4580078125	0.0999924635798379	994218	136	7	stim07_sf1_pattern2_cont2_shape2.png	0	136	0	456.832418454906	456.932410918485	0.0999924635798379	stim07_sf1_pattern2_cont2_shape2.png	1	2	2	2	1	4	0	0	0	0	0	0	0	0	0	0	0	0	1	19
485.9580078125	0.100017096236115	995242	137	4	stim04_sf1_pattern2_cont1_shape1.png	0	137	0	457.332407458183	457.432424554419	0.100017096236115	stim04_sf1_pattern2_cont1_shape1.png	1	2	1	1	1	1	0	0	0	0	0	0	0	0	0	0	0	0	1	19
486.4580078125	0.100018269222346	996266	138	3	stim03_sf1_pattern1_cont2_shape2.png	0	138	0	457.832398514183	457.932416783406	0.100018269222346	stim03_sf1_pattern1_cont2_shape2.png	1	1	2	2	1	4	0	0	0	0	0	0	0	0	0	0	0	0	1	19
486.9580078125	0.0999745755761978	997290	139	9	stim09_sf2_pattern1_cont1_shape2.png	0	139	0	458.332409510906	458.432384086482	0.0999745755761978	stim09_sf2_pattern1_cont1_shape2.png	2	1	1	2	1	3	0	0	0	0	0	0	0	0	0	0	0	0	1	19
487.4580078125	0.0999552213470452	998314	140	0	stim00_sf1_pattern1_cont1_shape1.png	0	140	0	458.83241669543	458.932371916777	0.0999552213470452	stim00_sf1_pattern1_cont1_shape1.png	1	1	1	1	1	1	0	0	0	0	0	0	0	0	0	0	0	0	1	19
487.9580078125	0.100000674465264	999338	141	15	stim15_sf2_pattern2_cont2_shape2.png	0	141	0	459.332395728346	459.432396402812	0.100000674465264	stim15_sf2_pattern2_cont2_shape2.png	2	2	2	2	1	4	0	0	0	0	0	0	0	0	0	0	0	0	1	19
488.4580078125	0.0999977420069627	1000362	142	2	stim02_sf1_pattern1_cont2_shape1.png	0	142	0	459.832387957329	459.932385699336	0.0999977420069627	stim02_sf1_pattern1_cont2_shape1.png	1	1	2	1	1	2	0	0	0	0	0	0	0	0	0	0	0	0	1	19
488.9580078125	0.0999877716458286	1001386	143	1	stim01_sf1_pattern1_cont1_shape2.png	0	143	0	460.332395141853	460.432382913499	0.0999877716458286	stim01_sf1_pattern1_cont1_shape2.png	1	1	1	2	1	3	0	0	0	0	0	0	0	0	0	0	0	0	1	19
489.4580078125	0.0999437847567606	1002410	144	6	stim06_sf1_pattern2_cont2_shape1.png	0	144	0	460.832367430114	460.93231121487	0.0999437847567606	stim06_sf1_pattern2_cont2_shape1.png	1	2	2	1	1	2	0	0	0	0	0	0	0	0	0	0	0	0	1	19
489.9580078125	0.0999942230555462	1003434	145	5	stim05_sf1_pattern2_cont1_shape2.png	0	145	0	461.332360245589	461.432354468645	0.0999942230555462	stim05_sf1_pattern2_cont1_shape2.png	1	2	1	2	1	3	0	0	0	0	0	0	0	0	0	0	0	0	1	19
490.4580078125	0.0999300021940144	1004458	146	14	stim14_sf2_pattern2_cont2_shape1.png	0	146	0	461.83236273818	461.932292740374	0.0999300021940144	stim14_sf2_pattern2_cont2_shape1.png	2	2	2	1	1	2	0	0	0	0	0	0	0	0	0	0	0	0	1	19
490.9580078125	0.0999956892846967	1005482	147	11	stim11_sf2_pattern1_cont2_shape2.png	0	147	0	462.332339131881	462.432334821166	0.0999956892846967	stim11_sf2_pattern1_cont2_shape2.png	2	1	2	2	1	4	0	0	0	0	0	0	0	0	0	0	0	0	1	19
491.4580078125	0.099997448760405	1006506	148	12	stim12_sf2_pattern2_cont1_shape1.png	0	148	0	462.832331360863	462.932328809624	0.099997448760405	stim12_sf2_pattern2_cont1_shape1.png	2	2	1	1	1	1	0	0	0	0	0	0	0	0	0	0	0	0	1	19
491.9580078125	0.099995396041777	1007530	149	13	stim13_sf2_pattern2_cont1_shape2.png	0	149	0	463.332323589846	463.432318985888	0.099995396041777	stim13_sf2_pattern2_cont1_shape2.png	2	2	1	2	1	3	0	0	0	0	0	0	0	0	0	0	0	0	1	19
492.4580078125	0.0999933433158731	1008554	150	10	stim10_sf2_pattern1_cont2_shape1.png	0	150	0	463.832315525586	463.932308868902	0.0999933433158731	stim10_sf2_pattern1_cont2_shape1.png	2	1	2	1	1	2	0	0	0	0	0	0	0	0	0	0	0	0	1	19
492.9580078125	0.0999936365624308	1009578	151	8	stim08_sf2_pattern1_cont1_shape1.png	0	151	0	464.332305995093	464.432299631655	0.0999936365624308	stim08_sf2_pattern1_cont1_shape1.png	2	1	1	1	1	1	0	0	0	0	0	0	0	0	0	0	0	0	1	19
493.4580078125	0.0999470104616194	1010602	152	11	stim11_sf2_pattern1_cont2_shape2.png	0	152	0	464.83229558486	464.932242595321	0.0999470104616194	stim11_sf2_pattern1_cont2_shape2.png	2	1	2	2	1	4	0	0	0	0	0	0	0	0	0	0	0	0	1	19
493.9580078125	0.0999930500729533	1011626	153	1	stim01_sf1_pattern1_cont1_shape2.png	0	153	0	465.332284588138	465.432277638211	0.0999930500729533	stim01_sf1_pattern1_cont1_shape2.png	1	1	1	2	1	3	0	0	0	0	0	0	0	0	0	0	0	0	1	19
494.4580078125	0.0999508226559556	1012650	154	9	stim09_sf2_pattern1_cont1_shape2.png	0	154	0	465.832276523877	465.932227346533	0.0999508226559556	stim09_sf2_pattern1_cont1_shape2.png	2	1	1	2	1	3	0	0	0	0	0	0	0	0	0	0	0	0	1	19
494.95751953125	0.0999646052150638	1013673	155	14	stim14_sf2_pattern2_cont2_shape1.png	0	155	0	466.332300130172	466.432264735387	0.0999646052150638	stim14_sf2_pattern2_cont2_shape1.png	2	2	2	1	1	2	0	0	0	0	0	0	0	0	0	0	0	0	1	19
495.45751953125	0.0999490631838853	1014697	156	6	stim06_sf1_pattern2_cont2_shape1.png	0	156	0	466.83225804938	466.932207112564	0.0999490631838853	stim06_sf1_pattern2_cont2_shape1.png	1	2	2	1	1	2	0	0	0	0	0	0	0	0	0	0	0	0	1	19
495.95751953125	0.099997448760405	1015721	157	12	stim12_sf2_pattern2_cont1_shape1.png	0	157	0	467.332249691874	467.432247140634	0.099997448760405	stim12_sf2_pattern2_cont1_shape1.png	2	2	1	1	1	1	0	0	0	0	0	0	0	0	0	0	0	0	1	19
496.45751953125	0.0999968622672895	1016745	158	2	stim02_sf1_pattern1_cont2_shape1.png	0	158	0	467.83224162761	467.932238489877	0.0999968622672895	stim02_sf1_pattern1_cont2_shape1.png	1	1	2	1	1	2	0	0	0	0	0	0	0	0	0	0	0	0	1	19
496.95751953125	0.100000381218706	1017769	159	10	stim10_sf2_pattern1_cont2_shape1.png	0	159	0	468.332203945509	468.432204326728	0.100000381218706	stim10_sf2_pattern1_cont2_shape1.png	2	1	2	1	1	2	0	0	0	0	0	0	0	0	0	0	0	0	1	19
497.45751953125	0.099949356426805	1018793	160	15	stim15_sf2_pattern2_cont2_shape2.png	0	160	0	468.832221686887	468.932171043314	0.099949356426805	stim15_sf2_pattern2_cont2_shape2.png	2	2	2	2	1	4	0	0	0	0	0	0	0	0	0	0	0	0	1	19
497.95751953125	0.0999857189235627	1019817	161	4	stim04_sf1_pattern2_cont1_shape1.png	0	161	0	469.332212156394	469.432197875318	0.0999857189235627	stim04_sf1_pattern2_cont1_shape1.png	1	2	1	1	1	1	0	0	0	0	0	0	0	0	0	0	0	0	1	19
498.45751953125	0.0999775080381369	1020841	162	5	stim05_sf1_pattern2_cont1_shape2.png	0	162	0	469.832177113505	469.932154621543	0.0999775080381369	stim05_sf1_pattern2_cont1_shape2.png	1	2	1	2	1	3	0	0	0	0	0	0	0	0	0	0	0	0	1	19
498.95751953125	0.100045247847447	1021865	163	3	stim03_sf1_pattern1_cont2_shape2.png	0	163	0	470.332132393502	470.432177641349	0.100045247847447	stim03_sf1_pattern1_cont2_shape2.png	1	1	2	2	1	4	0	0	0	0	0	0	0	0	0	0	0	0	1	19
499.45751953125	0.0999528753782215	1022889	164	8	stim08_sf2_pattern1_cont1_shape1.png	0	164	0	470.832162157963	470.932115033342	0.0999528753782215	stim08_sf2_pattern1_cont1_shape1.png	2	1	1	1	1	1	0	0	0	0	0	0	0	0	0	0	0	0	1	19
499.95751953125	0.0999959825312544	1023913	165	7	stim07_sf1_pattern2_cont2_shape2.png	0	165	0	471.332152920717	471.432148903248	0.0999959825312544	stim07_sf1_pattern2_cont2_shape2.png	1	2	2	2	1	4	0	0	0	0	0	0	0	0	0	0	0	0	1	19
500.45751953125	0.0999927568263956	1024937	166	13	stim13_sf2_pattern2_cont1_shape2.png	0	166	0	471.832145149699	471.932137906526	0.0999927568263956	stim13_sf2_pattern2_cont1_shape2.png	2	2	1	2	1	3	0	0	0	0	0	0	0	0	0	0	0	0	1	19
500.95751953125	0.0999956892846967	1025961	167	0	stim00_sf1_pattern1_cont1_shape1.png	0	167	0	472.332133859731	472.432129549015	0.0999956892846967	stim00_sf1_pattern1_cont1_shape1.png	1	1	1	1	1	1	0	0	0	0	0	0	0	0	0	0	0	0	1	19
555.47265625	0.0999725228539319	1137608	168	8	stim08_sf2_pattern1_cont1_shape1.png	1	0	0	526.847854334192	526.947826857046	0.0999725228539319	stim08_sf2_pattern1_cont1_shape1.png	2	1	1	1	1	1	0	0	0	0	0	0	0	0	0	0	0	0	1	19
555.97265625	0.0999992082361132	1138632	169	4	stim04_sf1_pattern2_cont1_shape1.png	1	1	0	527.34783600632	527.447835214556	0.0999992082361132	stim04_sf1_pattern2_cont1_shape1.png	1	2	1	1	1	1	0	0	0	0	0	0	0	0	0	0	0	0	1	19
556.47265625	0.100010351583478	1139656	170	1	stim01_sf1_pattern1_cont1_shape2.png	1	2	0	527.847829408285	527.947839759869	0.100010351583478	stim01_sf1_pattern1_cont1_shape2.png	1	1	1	2	1	3	0	0	0	0	0	0	0	0	0	0	0	0	1	19
556.97265625	0.0999748688227555	1140680	171	2	stim02_sf1_pattern1_cont2_shape1.png	1	3	0	528.347815479105	528.447790347927	0.0999748688227555	stim02_sf1_pattern1_cont2_shape1.png	1	1	2	1	1	2	0	0	0	0	0	0	0	0	0	0	0	0	1	19
557.47265625	0.0999760418089863	1141704	172	5	stim05_sf1_pattern2_cont1_shape2.png	1	4	0	528.847805655365	528.947781697174	0.0999760418089863	stim05_sf1_pattern2_cont1_shape2.png	1	2	1	2	1	3	0	0	0	0	0	0	0	0	0	0	0	0	1	19
557.97265625	0.0999751620693132	1142728	173	3	stim03_sf1_pattern1_cont2_shape2.png	1	5	0	529.347816945334	529.447792107403	0.0999751620693132	stim03_sf1_pattern1_cont2_shape2.png	1	1	2	2	1	4	0	0	0	0	0	0	0	0	0	0	0	0	1	19
558.47265625	0.100003313677007	1143752	174	9	stim09_sf2_pattern1_cont1_shape2.png	1	6	0	529.847764307691	529.947767621368	0.100003313677007	stim09_sf2_pattern1_cont1_shape2.png	2	1	1	2	1	3	0	0	0	0	0	0	0	0	0	0	0	0	1	19
558.97265625	0.099995396041777	1144776	175	11	stim11_sf2_pattern1_cont2_shape2.png	1	7	0	530.347784395035	530.447779791077	0.099995396041777	stim11_sf2_pattern1_cont2_shape2.png	2	1	2	2	1	4	0	0	0	0	0	0	0	0	0	0	0	0	1	19
559.47265625	0.100010644826398	1145800	176	10	stim10_sf2_pattern1_cont2_shape1.png	1	8	0	530.847776917264	530.947787562091	0.100010644826398	stim10_sf2_pattern1_cont2_shape1.png	2	1	2	1	1	2	0	0	0	0	0	0	0	0	0	0	0	0	1	19
559.97265625	0.0999962757778121	1146824	177	0	stim00_sf1_pattern1_cont1_shape1.png	1	9	0	531.347766213788	531.447762489566	0.0999962757778121	stim00_sf1_pattern1_cont1_shape1.png	1	1	1	1	1	1	0	0	0	0	0	0	0	0	0	0	0	0	1	19
560.47265625	0.10002208142032	1147848	178	6	stim06_sf1_pattern2_cont2_shape1.png	1	10	0	531.847763427952	531.947785509372	0.10002208142032	stim06_sf1_pattern2_cont2_shape1.png	1	2	2	1	1	2	0	0	0	0	0	0	0	0	0	0	0	0	1	19
560.97265625	0.0999569808227534	1148872	179	14	stim14_sf2_pattern2_cont2_shape1.png	1	11	0	532.347783222052	532.447740202875	0.0999569808227534	stim14_sf2_pattern2_cont2_shape1.png	2	2	2	1	1	2	0	0	0	0	0	0	0	0	0	0	0	0	1	19
561.47265625	0.100001260954741	1149896	180	15	stim15_sf2_pattern2_cont2_shape2.png	1	12	0	532.84773703582	532.947738296774	0.100001260954741	stim15_sf2_pattern2_cont2_shape2.png	2	2	2	2	1	4	0	0	0	0	0	0	0	0	0	0	0	0	1	19
561.97265625	0.0999997947292286	1150920	181	7	stim07_sf1_pattern2_cont2_shape2.png	1	13	0	533.347728091816	533.447727886545	0.0999997947292286	stim07_sf1_pattern2_cont2_shape2.png	1	2	2	2	1	4	0	0	0	0	0	0	0	0	0	0	0	0	1	19
562.47265625	0.100013284041779	1151944	182	13	stim13_sf2_pattern2_cont1_shape2.png	1	14	0	533.847716215358	533.947729499399	0.100013284041779	stim13_sf2_pattern2_cont1_shape2.png	2	2	1	2	1	3	0	0	0	0	0	0	0	0	0	0	0	0	1	19
562.97265625	0.0999877716458286	1152968	183	12	stim12_sf2_pattern2_cont1_shape1.png	1	15	0	534.347716948472	534.447704720118	0.0999877716458286	stim12_sf2_pattern2_cont1_shape1.png	2	2	1	1	1	1	0	0	0	0	0	0	0	0	0	0	0	0	1	19
563.47265625	0.0999690039061534	1153992	184	13	stim13_sf2_pattern2_cont1_shape2.png	1	16	0	534.847701846305	534.947670850212	0.0999690039061534	stim13_sf2_pattern2_cont1_shape2.png	2	2	1	2	1	3	0	0	0	0	0	0	0	0	0	0	0	0	1	19
563.97265625	0.0999945163021039	1155016	185	15	stim15_sf2_pattern2_cont2_shape2.png	1	17	0	535.34769114283	535.447685659132	0.0999945163021039	stim15_sf2_pattern2_cont2_shape2.png	2	2	2	2	1	4	0	0	0	0	0	0	0	0	0	0	0	0	1	19
564.47265625	0.0999675376733649	1156040	186	6	stim06_sf1_pattern2_cont2_shape1.png	1	18	0	535.847684251552	535.947651789225	0.0999675376733649	stim06_sf1_pattern2_cont2_shape1.png	1	2	2	1	1	2	0	0	0	0	0	0	0	0	0	0	0	0	1	19
564.97265625	0.099995396038139	1157064	187	9	stim09_sf2_pattern1_cont1_shape2.png	1	19	0	536.347672668337	536.447668064375	0.099995396038139	stim09_sf2_pattern1_cont1_shape2.png	2	1	1	2	1	3	0	0	0	0	0	0	0	0	0	0	0	0	1	19
565.47265625	0.0999716431178967	1158088	188	11	stim11_sf2_pattern1_cont2_shape2.png	1	20	0	536.847661964861	536.947633607979	0.0999716431178967	stim11_sf2_pattern1_cont2_shape2.png	2	1	2	2	1	4	0	0	0	0	0	0	0	0	0	0	0	0	1	19
565.97265625	0.0999907041041297	1159112	189	5	stim05_sf1_pattern2_cont1_shape2.png	1	21	0	537.347656539809	537.447647243913	0.0999907041041297	stim05_sf1_pattern2_cont1_shape2.png	1	2	1	2	1	3	0	0	0	0	0	0	0	0	0	0	0	0	1	19
566.47265625	0.0999643119721441	1160136	190	7	stim07_sf1_pattern2_cont2_shape2.png	1	22	0	537.847655806694	537.947620118666	0.0999643119721441	stim07_sf1_pattern2_cont2_shape2.png	1	2	2	2	1	4	0	0	0	0	0	0	0	0	0	0	0	0	1	19
566.97216796875	0.099997448760405	1161159	191	2	stim02_sf1_pattern1_cont2_shape1.png	1	23	0	538.347637478826	538.447634927586	0.099997448760405	stim02_sf1_pattern1_cont2_shape1.png	1	1	2	1	1	2	0	0	0	0	0	0	0	0	0	0	0	0	1	19
567.47216796875	0.0999719363644545	1162183	192	12	stim12_sf2_pattern2_cont1_shape1.png	1	24	0	538.84762824158	538.947600177944	0.0999719363644545	stim12_sf2_pattern2_cont1_shape1.png	2	2	1	1	1	1	0	0	0	0	0	0	0	0	0	0	0	0	1	19
567.97216796875	0.0999716431215347	1163207	193	4	stim04_sf1_pattern2_cont1_shape1.png	1	25	0	539.3476175381	539.447589181222	0.0999716431215347	stim04_sf1_pattern2_cont1_shape1.png	1	2	1	1	1	1	0	0	0	0	0	0	0	0	0	0	0	0	1	19
568.47216796875	0.0999719363644545	1164231	194	14	stim14_sf2_pattern2_cont2_shape1.png	1	26	0	539.847610353576	539.94758228994	0.0999719363644545	stim14_sf2_pattern2_cont2_shape1.png	2	2	2	1	1	2	0	0	0	0	0	0	0	0	0	0	0	0	1	19
568.97216796875	0.0999971555138472	1165255	195	3	stim03_sf1_pattern1_cont2_shape2.png	1	27	0	540.347600236593	540.447597392107	0.0999971555138472	stim03_sf1_pattern1_cont2_shape2.png	1	1	2	2	1	4	0	0	0	0	0	0	0	0	0	0	0	0	1	19
569.47216796875	0.0999710566247813	1166279	196	0	stim00_sf1_pattern1_cont1_shape1.png	1	28	0	540.847598916986	540.94756997361	0.0999710566247813	stim00_sf1_pattern1_cont1_shape1.png	1	1	1	1	1	1	0	0	0	0	0	0	0	0	0	0	0	0	1	19
569.97216796875	0.0999995014826709	1167303	197	1	stim01_sf1_pattern1_cont1_shape2.png	1	29	0	541.347582055343	541.447581556826	0.0999995014826709	stim01_sf1_pattern1_cont1_shape2.png	1	1	1	2	1	3	0	0	0	0	0	0	0	0	0	0	0	0	1	19
570.47216796875	0.0999780945276143	1168327	198	10	stim10_sf2_pattern1_cont2_shape1.png	1	30	0	541.847573111343	541.947551205871	0.0999780945276143	stim10_sf2_pattern1_cont2_shape1.png	2	1	2	1	1	2	0	0	0	0	0	0	0	0	0	0	0	0	1	19
570.97216796875	0.0999977420069627	1169351	199	8	stim08_sf2_pattern1_cont1_shape1.png	1	31	0	542.347560648392	542.447558390399	0.0999977420069627	stim08_sf2_pattern1_cont1_shape1.png	2	1	1	1	1	1	0	0	0	0	0	0	0	0	0	0	0	0	1	19
571.47216796875	0.100017975975788	1170375	200	3	stim03_sf1_pattern1_cont2_shape2.png	1	32	0	542.847564020718	542.947581996694	0.100017975975788	stim03_sf1_pattern1_cont2_shape2.png	1	1	2	2	1	4	0	0	0	0	0	0	0	0	0	0	0	0	1	19
571.97216796875	0.0999948095486616	1171399	201	15	stim15_sf2_pattern2_cont2_shape2.png	1	33	0	543.34754481311	543.447539622659	0.0999948095486616	stim15_sf2_pattern2_cont2_shape2.png	2	2	2	2	1	4	0	0	0	0	0	0	0	0	0	0	0	0	1	19
572.47216796875	0.100003020434087	1172423	202	12	stim12_sf2_pattern2_cont1_shape1.png	1	34	0	543.847536748846	543.94753976928	0.100003020434087	stim12_sf2_pattern2_cont1_shape1.png	2	2	1	1	1	1	0	0	0	0	0	0	0	0	0	0	0	0	1	19
572.97216796875	0.0999968622709275	1173447	203	8	stim08_sf2_pattern1_cont1_shape1.png	1	35	0	544.347525752124	544.447522614395	0.0999968622709275	stim08_sf2_pattern1_cont1_shape1.png	2	1	1	1	1	1	0	0	0	0	0	0	0	0	0	0	0	0	1	19
573.47216796875	0.0999977420069627	1174471	204	4	stim04_sf1_pattern2_cont1_shape1.png	1	36	0	544.847517981107	544.947515723114	0.0999977420069627	stim04_sf1_pattern2_cont1_shape1.png	1	2	1	1	1	1	0	0	0	0	0	0	0	0	0	0	0	0	1	19
573.97216796875	0.0999948095486616	1175495	205	5	stim05_sf1_pattern2_cont1_shape2.png	1	37	0	545.347509330353	545.447504139902	0.0999948095486616	stim05_sf1_pattern2_cont1_shape2.png	1	2	1	2	1	3	0	0	0	0	0	0	0	0	0	0	0	0	1	19
574.47216796875	0.0999886513818637	1176519	206	6	stim06_sf1_pattern2_cont2_shape1.png	1	38	0	545.84748836327	545.947477014652	0.0999886513818637	stim06_sf1_pattern2_cont2_shape1.png	1	2	2	1	1	2	0	0	0	0	0	0	0	0	0	0	0	0	1	19
574.97216796875	0.0999892378749792	1177543	207	14	stim14_sf2_pattern2_cont2_shape1.png	1	39	0	546.347500826221	546.447490064096	0.0999892378749792	stim14_sf2_pattern2_cont2_shape1.png	2	2	2	1	1	2	0	0	0	0	0	0	0	0	0	0	0	0	1	19
575.47216796875	0.0999933433158731	1178567	208	11	stim11_sf2_pattern1_cont2_shape2.png	1	40	0	546.847490122746	546.947483466061	0.0999933433158731	stim11_sf2_pattern1_cont2_shape2.png	2	1	2	2	1	4	0	0	0	0	0	0	0	0	0	0	0	0	1	19
575.97216796875	0.0999936365624308	1179591	209	13	stim13_sf2_pattern2_cont1_shape2.png	1	41	0	547.347487336909	547.447480973471	0.0999936365624308	stim13_sf2_pattern2_cont1_shape2.png	2	2	1	2	1	3	0	0	0	0	0	0	0	0	0	0	0	0	1	19
576.47216796875	0.0999977420069627	1180615	210	9	stim09_sf2_pattern1_cont1_shape2.png	1	42	0	547.847466076579	547.947463818586	0.0999977420069627	stim09_sf2_pattern1_cont1_shape2.png	2	1	1	2	1	3	0	0	0	0	0	0	0	0	0	0	0	0	1	19
576.97216796875	0.100000674465264	1181639	211	0	stim00_sf1_pattern1_cont1_shape1.png	1	43	0	548.347455373103	548.447456047568	0.100000674465264	stim00_sf1_pattern1_cont1_shape1.png	1	1	1	1	1	1	0	0	0	0	0	0	0	0	0	0	0	0	1	19
577.47216796875	0.0999986217429978	1182663	212	10	stim10_sf2_pattern1_cont2_shape1.png	1	44	0	548.847459038676	548.947457660419	0.0999986217429978	stim10_sf2_pattern1_cont2_shape1.png	2	1	2	1	1	2	0	0	0	0	0	0	0	0	0	0	0	0	1	19
577.97216796875	0.0999968622709275	1183687	213	2	stim02_sf1_pattern1_cont2_shape1.png	1	45	0	549.347438951329	549.447435813599	0.0999968622709275	stim02_sf1_pattern1_cont2_shape1.png	1	1	2	1	1	2	0	0	0	0	0	0	0	0	0	0	0	0	1	19
578.47216796875	0.0999989149895555	1184711	214	1	stim01_sf1_pattern1_cont1_shape2.png	1	46	0	549.847431180315	549.947430095304	0.0999989149895555	stim01_sf1_pattern1_cont1_shape2.png	1	1	1	2	1	3	0	0	0	0	0	0	0	0	0	0	0	0	1	19
578.97216796875	0.0999895311215369	1185735	215	7	stim07_sf1_pattern2_cont2_shape2.png	1	47	0	550.347429274214	550.447418805335	0.0999895311215369	stim07_sf1_pattern2_cont2_shape2.png	1	2	2	2	1	4	0	0	0	0	0	0	0	0	0	0	0	0	1	19
579.47216796875	0.0999719363644545	1186759	216	3	stim03_sf1_pattern1_cont2_shape2.png	1	48	0	550.847412119329	550.947384055693	0.0999719363644545	stim03_sf1_pattern1_cont2_shape2.png	1	1	2	2	1	4	0	0	0	0	0	0	0	0	0	0	0	0	1	19
579.97216796875	0.0999921703369182	1187783	217	4	stim04_sf1_pattern2_cont1_shape1.png	1	49	0	551.347406694276	551.447398864613	0.0999921703369182	stim04_sf1_pattern2_cont1_shape1.png	1	2	1	1	1	1	0	0	0	0	0	0	0	0	0	0	0	0	1	19
580.47216796875	0.0999927568227577	1188807	218	1	stim01_sf1_pattern1_cont1_shape2.png	1	50	0	551.847400389492	551.947393146314	0.0999927568227577	stim01_sf1_pattern1_cont1_shape2.png	1	1	1	2	1	3	0	0	0	0	0	0	0	0	0	0	0	0	1	19
580.97216796875	0.0999965690207318	1189831	219	13	stim13_sf2_pattern2_cont1_shape2.png	1	51	0	552.347387046801	552.447383615821	0.0999965690207318	stim13_sf2_pattern2_cont1_shape2.png	2	2	1	2	1	3	0	0	0	0	0	0	0	0	0	0	0	0	1	19
581.47216796875	0.100001847451495	1190855	220	14	stim14_sf2_pattern2_cont2_shape1.png	1	52	0	552.847373704109	552.947375551561	0.100001847451495	stim14_sf2_pattern2_cont2_shape1.png	2	2	2	1	1	2	0	0	0	0	0	0	0	0	0	0	0	0	1	19
581.97216796875	0.0999927568263956	1191879	221	11	stim11_sf2_pattern1_cont2_shape2.png	1	53	0	553.347367985814	553.447360742641	0.0999927568263956	stim11_sf2_pattern1_cont2_shape2.png	2	1	2	2	1	4	0	0	0	0	0	0	0	0	0	0	0	0	1	19
582.47216796875	0.0999930500693154	1192903	222	6	stim06_sf1_pattern2_cont2_shape1.png	1	54	0	553.847362560766	553.947355610835	0.0999930500693154	stim06_sf1_pattern2_cont2_shape1.png	1	2	2	1	1	2	0	0	0	0	0	0	0	0	0	0	0	0	1	19
582.97216796875	0.0999965690207318	1193927	223	0	stim00_sf1_pattern1_cont1_shape1.png	1	55	0	554.347350097814	554.447346666835	0.0999965690207318	stim00_sf1_pattern1_cont1_shape1.png	1	1	1	1	1	1	0	0	0	0	0	0	0	0	0	0	0	0	1	19
583.47216796875	0.0999962757778121	1194951	224	8	stim08_sf2_pattern1_cont1_shape1.png	1	56	0	554.847343206533	554.947339482311	0.0999962757778121	stim08_sf2_pattern1_cont1_shape1.png	2	1	1	1	1	1	0	0	0	0	0	0	0	0	0	0	0	0	1	19
583.97216796875	0.0999933433158731	1195975	225	9	stim09_sf2_pattern1_cont1_shape2.png	1	57	0	555.34733455578	555.447327899095	0.0999933433158731	stim09_sf2_pattern1_cont1_shape2.png	2	1	1	2	1	3	0	0	0	0	0	0	0	0	0	0	0	0	1	19
584.4716796875	0.100000381222344	1196998	226	2	stim02_sf1_pattern1_cont2_shape1.png	1	58	0	555.847322386071	555.947322767293	0.100000381222344	stim02_sf1_pattern1_cont2_shape1.png	1	1	2	1	1	2	0	0	0	0	0	0	0	0	0	0	0	0	1	19
584.9716796875	0.0999971555138472	1198022	227	7	stim07_sf1_pattern2_cont2_shape2.png	1	59	0	556.347316374533	556.447313530047	0.0999971555138472	stim07_sf1_pattern2_cont2_shape2.png	1	2	2	2	1	4	0	0	0	0	0	0	0	0	0	0	0	0	1	19
585.4716796875	0.0999995014826709	1199046	228	10	stim10_sf2_pattern1_cont2_shape1.png	1	60	0	556.847303031842	556.947302533325	0.0999995014826709	stim10_sf2_pattern1_cont2_shape1.png	2	1	2	1	1	2	0	0	0	0	0	0	0	0	0	0	0	0	1	19
585.9716796875	0.100002140694414	1200070	229	5	stim05_sf1_pattern2_cont1_shape2.png	1	61	0	557.347269748429	557.447271889123	0.100002140694414	stim05_sf1_pattern2_cont1_shape2.png	1	2	1	2	1	3	0	0	0	0	0	0	0	0	0	0	0	0	1	19
586.4716796875	0.100001260958379	1201094	230	15	stim15_sf2_pattern2_cont2_shape2.png	1	62	0	557.847285143838	557.947286404797	0.100001260958379	stim15_sf2_pattern2_cont2_shape2.png	2	2	2	2	1	4	0	0	0	0	0	0	0	0	0	0	0	0	1	19
586.9716796875	0.0999924635798379	1202118	231	12	stim12_sf2_pattern2_cont1_shape1.png	1	63	0	558.347284117477	558.447276581057	0.0999924635798379	stim12_sf2_pattern2_cont1_shape1.png	2	2	1	1	1	1	0	0	0	0	0	0	0	0	0	0	0	0	1	19
587.4716796875	0.0999962757778121	1203142	232	3	stim03_sf1_pattern1_cont2_shape2.png	1	64	0	558.847266376099	558.947262651876	0.0999962757778121	stim03_sf1_pattern1_cont2_shape2.png	1	1	2	2	1	4	0	0	0	0	0	0	0	0	0	0	0	0	1	19
587.9716796875	0.0999956892846967	1204166	233	2	stim02_sf1_pattern1_cont2_shape1.png	1	65	0	559.347261537543	559.447257226828	0.0999956892846967	stim02_sf1_pattern1_cont2_shape1.png	1	1	2	1	1	2	0	0	0	0	0	0	0	0	0	0	0	0	1	19
588.4716796875	0.0999848391838896	1205190	234	4	stim04_sf1_pattern2_cont1_shape1.png	1	66	0	559.847259338199	559.947244177383	0.0999848391838896	stim04_sf1_pattern2_cont1_shape1.png	1	2	1	1	1	1	0	0	0	0	0	0	0	0	0	0	0	0	1	19
588.9716796875	0.0999956892846967	1206214	235	7	stim07_sf1_pattern2_cont2_shape2.png	1	67	0	560.347238957605	560.44723464689	0.0999956892846967	stim07_sf1_pattern2_cont2_shape2.png	1	2	2	2	1	4	0	0	0	0	0	0	0	0	0	0	0	0	1	19
589.4716796875	0.0999962757778121	1207238	236	0	stim00_sf1_pattern1_cont1_shape1.png	1	68	0	560.847241743442	560.94723801922	0.0999962757778121	stim00_sf1_pattern1_cont1_shape1.png	1	1	1	1	1	1	0	0	0	0	0	0	0	0	0	0	0	0	1	19
589.9716796875	0.0999939298089885	1208262	237	12	stim12_sf2_pattern2_cont1_shape1.png	1	69	0	561.347226054786	561.447219984595	0.0999939298089885	stim12_sf2_pattern2_cont1_shape1.png	2	2	1	1	1	1	0	0	0	0	0	0	0	0	0	0	0	0	1	19
590.4716796875	0.100024134138948	1209286	238	11	stim11_sf2_pattern1_cont2_shape2.png	1	70	0	561.847192478126	561.947216612265	0.100024134138948	stim11_sf2_pattern1_cont2_shape2.png	2	1	2	2	1	4	0	0	0	0	0	0	0	0	0	0	0	0	1	19
590.9716796875	0.100000674465264	1210310	239	9	stim09_sf2_pattern1_cont1_shape2.png	1	71	0	562.347209046522	562.447209720987	0.100000674465264	stim09_sf2_pattern1_cont1_shape2.png	2	1	1	2	1	3	0	0	0	0	0	0	0	0	0	0	0	0	1	19
591.4716796875	0.0999962757778121	1211334	240	6	stim06_sf1_pattern2_cont2_shape1.png	1	72	0	562.847207140421	562.947203416199	0.0999962757778121	stim06_sf1_pattern2_cont2_shape1.png	1	2	2	1	1	2	0	0	0	0	0	0	0	0	0	0	0	0	1	19
591.9716796875	0.0999948095450236	1212358	241	5	stim05_sf1_pattern2_cont1_shape2.png	1	73	0	563.347189985536	563.447184795081	0.0999948095450236	stim05_sf1_pattern2_cont1_shape2.png	1	2	1	2	1	3	0	0	0	0	0	0	0	0	0	0	0	0	1	19
592.4716796875	0.0999956892846967	1213382	242	14	stim14_sf2_pattern2_cont2_shape1.png	1	74	0	563.847179575303	563.947175264588	0.0999956892846967	stim14_sf2_pattern2_cont2_shape1.png	2	2	2	1	1	2	0	0	0	0	0	0	0	0	0	0	0	0	1	19
592.9716796875	0.0999956892846967	1214406	243	8	stim08_sf2_pattern1_cont1_shape1.png	1	75	0	564.347172097532	564.447167786817	0.0999956892846967	stim08_sf2_pattern1_cont1_shape1.png	2	1	1	1	1	1	0	0	0	0	0	0	0	0	0	0	0	0	1	19
593.4716796875	0.0999936365660687	1215430	244	15	stim15_sf2_pattern2_cont2_shape2.png	1	76	0	564.847162567039	564.947156203605	0.0999936365660687	stim15_sf2_pattern2_cont2_shape2.png	2	2	2	2	1	4	0	0	0	0	0	0	0	0	0	0	0	0	1	19
593.9716796875	0.099995396038139	1216454	245	1	stim01_sf1_pattern1_cont1_shape2.png	1	77	0	565.347155969008	565.447151365046	0.099995396038139	stim01_sf1_pattern1_cont1_shape2.png	1	1	1	2	1	3	0	0	0	0	0	0	0	0	0	0	0	0	1	19
594.4716796875	0.0999933433158731	1217478	246	13	stim13_sf2_pattern2_cont1_shape2.png	1	78	0	565.847145265532	565.947138608848	0.0999933433158731	stim13_sf2_pattern2_cont1_shape2.png	2	2	1	2	1	3	0	0	0	0	0	0	0	0	0	0	0	0	1	19
594.9716796875	0.099990410857572	1218502	247	10	stim10_sf2_pattern1_cont2_shape1.png	1	79	0	566.347142772942	566.447133183799	0.099990410857572	stim10_sf2_pattern1_cont2_shape1.png	2	1	2	1	1	2	0	0	0	0	0	0	0	0	0	0	0	0	1	19
595.4716796875	0.0999909973506874	1219526	248	15	stim15_sf2_pattern2_cont2_shape2.png	1	80	0	566.847127084282	566.947118081633	0.0999909973506874	stim15_sf2_pattern2_cont2_shape2.png	2	2	2	2	1	4	0	0	0	0	0	0	0	0	0	0	0	0	1	19
595.9716796875	0.0999948095486616	1220550	249	6	stim06_sf1_pattern2_cont2_shape1.png	1	81	0	567.347117847035	567.447112656584	0.0999948095486616	stim06_sf1_pattern2_cont2_shape1.png	1	2	2	1	1	2	0	0	0	0	0	0	0	0	0	0	0	0	1	19
596.4716796875	0.0999983284964401	1221574	250	14	stim14_sf2_pattern2_cont2_shape1.png	1	82	0	567.847107436806	567.947105765303	0.0999983284964401	stim14_sf2_pattern2_cont2_shape1.png	2	2	2	1	1	2	0	0	0	0	0	0	0	0	0	0	0	0	1	19
596.9716796875	0.0999945163021039	1222598	251	13	stim13_sf2_pattern2_cont1_shape2.png	1	83	0	568.347101132018	568.44709564832	0.0999945163021039	stim13_sf2_pattern2_cont1_shape2.png	2	2	1	2	1	3	0	0	0	0	0	0	0	0	0	0	0	0	1	19
597.4716796875	0.0999997947255906	1223622	252	0	stim00_sf1_pattern1_cont1_shape1.png	1	84	0	568.847085736608	568.947085531334	0.0999997947255906	stim00_sf1_pattern1_cont1_shape1.png	1	1	1	1	1	1	0	0	0	0	0	0	0	0	0	0	0	0	1	19
597.9716796875	0.0999874783992709	1224646	253	8	stim08_sf2_pattern1_cont1_shape1.png	1	85	0	569.347086469723	569.447073948122	0.0999874783992709	stim08_sf2_pattern1_cont1_shape1.png	2	1	1	1	1	1	0	0	0	0	0	0	0	0	0	0	0	0	1	19
598.4716796875	0.0999965690243698	1225670	254	3	stim03_sf1_pattern1_cont2_shape2.png	1	86	0	569.847071074309	569.947067643334	0.0999965690243698	stim03_sf1_pattern1_cont2_shape2.png	1	1	2	2	1	4	0	0	0	0	0	0	0	0	0	0	0	0	1	19
598.9716796875	0.0999945163021039	1226694	255	4	stim04_sf1_pattern2_cont1_shape1.png	1	87	0	570.347063596539	570.447058112841	0.0999945163021039	stim04_sf1_pattern2_cont1_shape1.png	1	2	1	1	1	1	0	0	0	0	0	0	0	0	0	0	0	0	1	19
599.4716796875	0.0999977420069627	1227718	256	1	stim01_sf1_pattern1_cont1_shape2.png	1	88	0	570.847053772799	570.947051514806	0.0999977420069627	stim01_sf1_pattern1_cont1_shape2.png	1	1	1	2	1	3	0	0	0	0	0	0	0	0	0	0	0	0	1	19
599.9716796875	0.0999965690207318	1228742	257	5	stim05_sf1_pattern2_cont1_shape2.png	1	89	0	571.347050986966	571.447047555987	0.0999965690207318	stim05_sf1_pattern2_cont1_shape2.png	1	2	1	2	1	3	0	0	0	0	0	0	0	0	0	0	0	0	1	19
600.4716796875	0.0999880648923863	1229766	258	9	stim09_sf2_pattern1_cont1_shape2.png	1	90	0	571.847042336209	571.947030401101	0.0999880648923863	stim09_sf2_pattern1_cont1_shape2.png	2	1	1	2	1	3	0	0	0	0	0	0	0	0	0	0	0	0	1	19
600.9716796875	0.0999912905972451	1230790	259	7	stim07_sf1_pattern2_cont2_shape2.png	1	91	0	572.347005533844	572.446996824441	0.0999912905972451	stim07_sf1_pattern2_cont2_shape2.png	1	2	2	2	1	4	0	0	0	0	0	0	0	0	0	0	0	0	1	19
601.4716796875	0.0999948095450236	1231814	260	12	stim12_sf2_pattern2_cont1_shape1.png	1	92	0	572.847000402042	572.946995211587	0.0999948095450236	stim12_sf2_pattern2_cont1_shape1.png	2	2	1	1	1	1	0	0	0	0	0	0	0	0	0	0	0	0	1	19
601.97119140625	0.0999880648887483	1232837	261	2	stim02_sf1_pattern1_cont2_shape1.png	1	93	0	573.346990871549	573.446978936438	0.0999880648887483	stim02_sf1_pattern1_cont2_shape1.png	1	1	2	1	1	2	0	0	0	0	0	0	0	0	0	0	0	0	1	19
602.47119140625	0.0999942230555462	1233861	262	10	stim10_sf2_pattern1_cont2_shape1.png	1	94	0	573.846975769382	573.946969992438	0.0999942230555462	stim10_sf2_pattern1_cont2_shape1.png	2	1	2	1	1	2	0	0	0	0	0	0	0	0	0	0	0	0	1	19
602.97119140625	0.0999962757778121	1234885	263	11	stim11_sf2_pattern1_cont2_shape2.png	1	95	0	574.346976795743	574.446973071521	0.0999962757778121	stim11_sf2_pattern1_cont2_shape2.png	2	1	2	2	1	4	0	0	0	0	0	0	0	0	0	0	0	0	1	19
603.47119140625	0.0999986217466358	1235909	264	3	stim03_sf1_pattern1_cont2_shape2.png	1	96	0	574.846957001642	574.946955623389	0.0999986217466358	stim03_sf1_pattern1_cont2_shape2.png	1	1	2	2	1	4	0	0	0	0	0	0	0	0	0	0	0	0	1	19
603.97119140625	0.100015923253522	1236933	265	6	stim06_sf1_pattern2_cont2_shape1.png	1	97	0	575.34695186984	575.446967793094	0.100015923253522	stim06_sf1_pattern2_cont2_shape1.png	1	2	2	1	1	2	0	0	0	0	0	0	0	0	0	0	0	0	1	19
604.47119140625	0.100019442204939	1237957	266	0	stim00_sf1_pattern1_cont1_shape1.png	1	98	0	575.846945271805	575.94696471401	0.100019442204939	stim00_sf1_pattern1_cont1_shape1.png	1	1	1	1	1	1	0	0	0	0	0	0	0	0	0	0	0	0	1	19
604.97119140625	0.0991203501835116	1238981	267	12	stim12_sf2_pattern2_cont1_shape1.png	1	99	0	576.34783600632	576.446956356504	0.0991203501835116	stim12_sf2_pattern2_cont1_shape1.png	2	2	1	1	1	1	0	0	0	0	0	0	0	0	0	0	0	0	1	19
605.47119140625	0.0999959825312544	1240005	268	9	stim09_sf2_pattern1_cont1_shape2.png	1	100	0	576.846959640858	576.946955623389	0.0999959825312544	stim09_sf2_pattern1_cont1_shape2.png	2	1	1	2	1	3	0	0	0	0	0	0	0	0	0	0	0	0	1	19
605.97119140625	0.100009178597247	1241029	269	4	stim04_sf1_pattern2_cont1_shape1.png	1	101	0	577.346947177906	577.446956356504	0.100009178597247	stim04_sf1_pattern2_cont1_shape1.png	1	2	1	1	1	1	0	0	0	0	0	0	0	0	0	0	0	0	1	19
606.47119140625	0.0999945163021039	1242053	270	7	stim07_sf1_pattern2_cont2_shape2.png	1	102	0	577.846944098823	577.946938615125	0.0999945163021039	stim07_sf1_pattern2_cont2_shape2.png	1	2	2	2	1	4	0	0	0	0	0	0	0	0	0	0	0	0	1	19
606.97119140625	0.0999930500693154	1243077	271	10	stim10_sf2_pattern1_cont2_shape1.png	1	103	0	578.346930169642	578.446923219712	0.0999930500693154	stim10_sf2_pattern1_cont2_shape1.png	2	1	2	1	1	2	0	0	0	0	0	0	0	0	0	0	0	0	1	19
607.47119140625	0.0999962757778121	1244101	272	2	stim02_sf1_pattern1_cont2_shape1.png	1	104	0	578.846916826951	578.946913102729	0.0999962757778121	stim02_sf1_pattern1_cont2_shape1.png	1	1	2	1	1	2	0	0	0	0	0	0	0	0	0	0	0	0	1	19
607.97119140625	0.0999965690243698	1245125	273	13	stim13_sf2_pattern2_cont1_shape2.png	1	105	0	579.346903777507	579.446900346531	0.0999965690243698	stim13_sf2_pattern2_cont1_shape2.png	2	2	1	2	1	3	0	0	0	0	0	0	0	0	0	0	0	0	1	19
608.47119140625	0.0999971555138472	1246149	274	1	stim01_sf1_pattern1_cont1_shape2.png	1	106	0	579.846893367278	579.946890522791	0.0999971555138472	stim01_sf1_pattern1_cont1_shape2.png	1	1	1	2	1	3	0	0	0	0	0	0	0	0	0	0	0	0	1	19
608.97119140625	0.0999983284964401	1247173	275	5	stim05_sf1_pattern2_cont1_shape2.png	1	107	0	580.34688061108	580.446878939576	0.0999983284964401	stim05_sf1_pattern2_cont1_shape2.png	1	2	1	2	1	3	0	0	0	0	0	0	0	0	0	0	0	0	1	19
609.47119140625	0.099995396038139	1248197	276	11	stim11_sf2_pattern1_cont2_shape2.png	1	108	0	580.84687577252	580.946871168559	0.099995396038139	stim11_sf2_pattern1_cont2_shape2.png	2	1	2	2	1	4	0	0	0	0	0	0	0	0	0	0	0	0	1	19
609.97119140625	0.0999989149895555	1249221	277	15	stim15_sf2_pattern2_cont2_shape2.png	1	109	0	581.346866535274	581.446865450263	0.0999989149895555	stim15_sf2_pattern2_cont2_shape2.png	2	2	2	2	1	4	0	0	0	0	0	0	0	0	0	0	0	0	1	19
610.47119140625	0.0999892378749792	1250245	278	8	stim08_sf2_pattern1_cont1_shape1.png	1	110	0	581.846859057503	581.946848295378	0.0999892378749792	stim08_sf2_pattern1_cont1_shape1.png	2	1	1	1	1	1	0	0	0	0	0	0	0	0	0	0	0	0	1	19
610.97119140625	0.0991048081450572	1251269	279	14	stim14_sf2_pattern2_cont2_shape1.png	1	111	0	582.347739821656	582.446844629801	0.0991048081450572	stim14_sf2_pattern2_cont2_shape1.png	2	2	2	1	1	2	0	0	0	0	0	0	0	0	0	0	0	0	1	19
611.47119140625	0.0999690039061534	1252293	280	5	stim05_sf1_pattern2_cont1_shape2.png	1	112	0	582.846839996517	582.946809000423	0.0999690039061534	stim05_sf1_pattern2_cont1_shape2.png	1	2	1	2	1	3	0	0	0	0	0	0	0	0	0	0	0	0	1	19
611.97119140625	0.0999995014826709	1253317	281	8	stim08_sf2_pattern1_cont1_shape1.png	1	113	0	583.346829293041	583.446828794524	0.0999995014826709	stim08_sf2_pattern1_cont1_shape1.png	2	1	1	1	1	1	0	0	0	0	0	0	0	0	0	0	0	0	1	19
612.47119140625	0.0999962757778121	1254341	282	1	stim01_sf1_pattern1_cont1_shape2.png	1	114	0	583.846820055795	583.946816331572	0.0999962757778121	stim01_sf1_pattern1_cont1_shape2.png	1	1	1	2	1	3	0	0	0	0	0	0	0	0	0	0	0	0	1	19
612.97119140625	0.0999939298089885	1255365	283	7	stim07_sf1_pattern2_cont2_shape2.png	1	115	0	584.346814044253	584.446807974062	0.0999939298089885	stim07_sf1_pattern2_cont2_shape2.png	1	2	2	2	1	4	0	0	0	0	0	0	0	0	0	0	0	0	1	19
613.47119140625	0.0999986217466358	1256389	284	3	stim03_sf1_pattern1_cont2_shape2.png	1	116	0	584.846800701562	584.946799323308	0.0999986217466358	stim03_sf1_pattern1_cont2_shape2.png	1	1	2	2	1	4	0	0	0	0	0	0	0	0	0	0	0	0	1	19
613.97119140625	0.0999901176110143	1257413	285	15	stim15_sf2_pattern2_cont2_shape2.png	1	117	0	585.346795863006	585.446785980617	0.0999901176110143	stim15_sf2_pattern2_cont2_shape2.png	2	2	2	2	1	4	0	0	0	0	0	0	0	0	0	0	0	0	1	19
614.47119140625	0.099995396038139	1258437	286	0	stim00_sf1_pattern1_cont1_shape1.png	1	118	0	585.846784866284	585.946780262322	0.099995396038139	stim00_sf1_pattern1_cont1_shape1.png	1	1	1	1	1	1	0	0	0	0	0	0	0	0	0	0	0	0	1	19
614.97119140625	0.100035570732871	1259461	287	12	stim12_sf2_pattern2_cont1_shape1.png	1	119	0	586.346736920572	586.446772491305	0.100035570732871	stim12_sf2_pattern2_cont1_shape1.png	2	2	1	1	1	1	0	0	0	0	0	0	0	0	0	0	0	0	1	19
615.47119140625	0.099995396041777	1260485	288	13	stim13_sf2_pattern2_cont1_shape2.png	1	120	0	586.846766391787	586.946761787829	0.099995396041777	stim13_sf2_pattern2_cont1_shape2.png	2	2	1	2	1	3	0	0	0	0	0	0	0	0	0	0	0	0	1	19
615.97119140625	0.0999995014790329	1261509	289	4	stim04_sf1_pattern2_cont1_shape1.png	1	121	0	587.346761846478	587.446761347957	0.0999995014790329	stim04_sf1_pattern2_cont1_shape1.png	1	2	1	1	1	1	0	0	0	0	0	0	0	0	0	0	0	0	1	19
616.47119140625	0.0999986217429978	1262533	290	11	stim11_sf2_pattern1_cont2_shape2.png	1	122	0	587.846747330805	587.946745952548	0.0999986217429978	stim11_sf2_pattern1_cont2_shape2.png	2	1	2	2	1	4	0	0	0	0	0	0	0	0	0	0	0	0	1	19
616.97119140625	0.100000967711821	1263557	291	10	stim10_sf2_pattern1_cont2_shape1.png	1	123	0	588.346731642145	588.446732609857	0.100000967711821	stim10_sf2_pattern1_cont2_shape1.png	2	1	2	1	1	2	0	0	0	0	0	0	0	0	0	0	0	0	1	19
617.47119140625	0.0999860121664824	1264581	292	2	stim02_sf1_pattern1_cont2_shape1.png	1	124	0	588.846737067197	588.946723079363	0.0999860121664824	stim02_sf1_pattern1_cont2_shape1.png	1	1	2	1	1	2	0	0	0	0	0	0	0	0	0	0	0	0	1	19
617.97119140625	0.100019148958381	1265605	293	9	stim09_sf2_pattern1_cont1_shape2.png	1	125	0	589.346696452634	589.446715601593	0.100019148958381	stim09_sf2_pattern1_cont1_shape2.png	2	1	1	2	1	3	0	0	0	0	0	0	0	0	0	0	0	0	1	19
618.47119140625	0.0999895311215369	1266629	294	14	stim14_sf2_pattern2_cont2_shape1.png	1	126	0	589.846716246735	589.946705777857	0.0999895311215369	stim14_sf2_pattern2_cont2_shape1.png	2	2	2	1	1	2	0	0	0	0	0	0	0	0	0	0	0	0	1	19
618.97119140625	0.0999745755761978	1267653	295	6	stim06_sf1_pattern2_cont2_shape1.png	1	127	0	590.346702317554	590.446676893131	0.0999745755761978	stim06_sf1_pattern2_cont2_shape1.png	1	2	2	1	1	2	0	0	0	0	0	0	0	0	0	0	0	0	1	19
619.470703125	0.0999939298089885	1268676	296	12	stim12_sf2_pattern2_cont1_shape1.png	1	128	0	590.846693960044	590.946687889853	0.0999939298089885	stim12_sf2_pattern2_cont1_shape1.png	2	2	1	1	1	1	0	0	0	0	0	0	0	0	0	0	0	0	1	19
619.970703125	0.0999912905972451	1269700	297	3	stim03_sf1_pattern1_cont2_shape2.png	1	129	0	591.346683843058	591.446675133655	0.0999912905972451	stim03_sf1_pattern1_cont2_shape2.png	1	1	2	2	1	4	0	0	0	0	0	0	0	0	0	0	0	0	1	19
620.470703125	0.100001260954741	1270724	298	2	stim02_sf1_pattern1_cont2_shape1.png	1	130	0	591.846674312568	591.946675573523	0.100001260954741	stim02_sf1_pattern1_cont2_shape1.png	1	1	2	1	1	2	0	0	0	0	0	0	0	0	0	0	0	0	1	19
620.970703125	0.0999874783992709	1271748	299	13	stim13_sf2_pattern2_cont1_shape2.png	1	131	0	592.346677684895	592.446665163294	0.0999874783992709	stim13_sf2_pattern2_cont1_shape2.png	2	2	1	2	1	3	0	0	0	0	0	0	0	0	0	0	0	0	1	19
621.470703125	0.0999951027952193	1272772	300	15	stim15_sf2_pattern2_cont2_shape2.png	1	132	0	592.846661409745	592.94665651254	0.0999951027952193	stim15_sf2_pattern2_cont2_shape2.png	2	2	2	2	1	4	0	0	0	0	0	0	0	0	0	0	0	0	1	19
621.970703125	0.0999977420069627	1273796	301	6	stim06_sf1_pattern2_cont2_shape1.png	1	133	0	593.346659210401	593.446656952408	0.0999977420069627	stim06_sf1_pattern2_cont2_shape1.png	1	2	2	1	1	2	0	0	0	0	0	0	0	0	0	0	0	0	1	19
622.470703125	0.0999918770867225	1274820	302	4	stim04_sf1_pattern2_cont1_shape1.png	1	134	1	593.846657304304	593.946649181391	0.0999918770867225	stim04_sf1_pattern2_cont1_shape1.png	1	2	1	1	1	1	0	0	0	0	0	0	0	0	0	0	0	0	1	19
622.970703125	0.0999909973506874	1275844	303	4	stim04_sf1_pattern2_cont1_shape1.png	1	135	1	594.346633404759	594.44662440211	0.0999909973506874	stim04_sf1_pattern2_cont1_shape1.png	1	2	1	1	1	1	0	0	0	0	0	0	0	0	0	0	0	0	1	19
623.470703125	0.100005366399273	1276868	304	7	stim07_sf1_pattern2_cont2_shape2.png	1	136	2	594.846622408037	594.946627774436	0.100005366399273	stim07_sf1_pattern2_cont2_shape2.png	1	2	2	2	1	4	0	0	0	0	0	0	0	0	0	0	0	0	1	19
623.970703125	0.100005366402911	1277892	305	2	stim02_sf1_pattern1_cont2_shape1.png	1	137	2	595.346615810002	595.446621176405	0.100005366402911	stim02_sf1_pattern1_cont2_shape1.png	1	1	2	1	1	2	0	0	0	0	0	0	0	0	0	0	0	0	1	19
624.470703125	0.0999912905972451	1278916	306	11	stim11_sf2_pattern1_cont2_shape2.png	1	138	0	595.846606572755	595.946597863353	0.0999912905972451	stim11_sf2_pattern1_cont2_shape2.png	2	1	2	2	1	4	0	0	0	0	0	0	0	0	0	0	0	0	1	19
624.970703125	0.0999980352535204	1279940	307	14	stim14_sf2_pattern2_cont2_shape1.png	1	139	0	596.346575048818	596.446573084071	0.0999980352535204	stim14_sf2_pattern2_cont2_shape1.png	2	2	2	1	1	2	0	0	0	0	0	0	0	0	0	0	0	0	1	19
625.470703125	0.0999939298089885	1280964	308	7	stim07_sf1_pattern2_cont2_shape2.png	1	140	0	596.846587218526	596.946581148335	0.0999939298089885	stim07_sf1_pattern2_cont2_shape2.png	1	2	2	2	1	4	0	0	0	0	0	0	0	0	0	0	0	0	1	19
625.970703125	0.0999933433158731	1281988	309	4	stim04_sf1_pattern2_cont1_shape1.png	1	141	0	597.346577688033	597.446571031349	0.0999933433158731	stim04_sf1_pattern2_cont1_shape1.png	1	2	1	1	1	1	0	0	0	0	0	0	0	0	0	0	0	0	1	19
626.470703125	0.0999965690243698	1283012	310	9	stim09_sf2_pattern1_cont1_shape2.png	1	142	0	597.846567571047	597.946564140071	0.0999965690243698	stim09_sf2_pattern1_cont1_shape2.png	2	1	1	2	1	3	0	0	0	0	0	0	0	0	0	0	0	0	1	19
626.970703125	0.0999939298089885	1284036	311	0	stim00_sf1_pattern1_cont1_shape1.png	1	143	0	598.346559800029	598.446553729838	0.0999939298089885	stim00_sf1_pattern1_cont1_shape1.png	1	1	1	1	1	1	0	0	0	0	0	0	0	0	0	0	0	0	1	19
627.470703125	0.0999698836421885	1285060	312	5	stim05_sf1_pattern2_cont1_shape2.png	1	144	0	598.8465493898	598.946519273442	0.0999698836421885	stim05_sf1_pattern2_cont1_shape2.png	1	2	1	2	1	3	0	0	0	0	0	0	0	0	0	0	0	0	1	19
627.970703125	0.0999962757778121	1286084	313	8	stim08_sf2_pattern1_cont1_shape1.png	1	145	0	599.34654103229	599.446537308067	0.0999962757778121	stim08_sf2_pattern1_cont1_shape1.png	2	1	1	1	1	1	0	0	0	0	0	0	0	0	0	0	0	0	1	19
628.470703125	0.0999942230555462	1287108	314	10	stim10_sf2_pattern1_cont2_shape1.png	1	146	0	599.846532674783	599.946526897838	0.0999942230555462	stim10_sf2_pattern1_cont2_shape1.png	2	1	2	1	1	2	0	0	0	0	0	0	0	0	0	0	0	0	1	19
628.970703125	0.099995396038139	1288132	315	1	stim01_sf1_pattern1_cont1_shape2.png	1	147	0	600.346524903765	600.446520299804	0.099995396038139	stim01_sf1_pattern1_cont1_shape2.png	1	1	1	2	1	3	0	0	0	0	0	0	0	0	0	0	0	0	1	19
629.470703125	0.0999983285000781	1289156	316	0	stim00_sf1_pattern1_cont1_shape1.png	1	148	0	600.846511267828	600.946509596328	0.0999983285000781	stim00_sf1_pattern1_cont1_shape1.png	1	1	1	1	1	1	0	0	0	0	0	0	0	0	0	0	0	0	1	19
629.970703125	0.0999956892846967	1290180	317	14	stim14_sf2_pattern2_cont2_shape1.png	1	149	0	601.346505842779	601.446501532064	0.0999956892846967	stim14_sf2_pattern2_cont2_shape1.png	2	2	2	1	1	2	0	0	0	0	0	0	0	0	0	0	0	0	1	19
630.470703125	0.0999948095486616	1291204	318	13	stim13_sf2_pattern2_cont1_shape2.png	1	150	0	601.846496312286	601.946491121835	0.0999948095486616	stim13_sf2_pattern2_cont1_shape2.png	2	2	1	2	1	3	0	0	0	0	0	0	0	0	0	0	0	0	1	19
630.970703125	0.0999989149895555	1292228	319	12	stim12_sf2_pattern2_cont1_shape1.png	1	151	0	602.346486781793	602.446485696782	0.0999989149895555	stim12_sf2_pattern2_cont1_shape1.png	2	2	1	1	1	1	0	0	0	0	0	0	0	0	0	0	0	0	1	19
631.470703125	0.0999962757778121	1293252	320	7	stim07_sf1_pattern2_cont2_shape2.png	1	152	0	602.846479890515	602.946476166293	0.0999962757778121	stim07_sf1_pattern2_cont2_shape2.png	1	2	2	2	1	4	0	0	0	0	0	0	0	0	0	0	0	0	1	19
631.970703125	0.0999962757778121	1294276	321	6	stim06_sf1_pattern2_cont2_shape1.png	1	153	0	603.346464788348	603.446461064126	0.0999962757778121	stim06_sf1_pattern2_cont2_shape1.png	1	2	2	1	1	2	0	0	0	0	0	0	0	0	0	0	0	0	1	19
632.470703125	0.100000381218706	1295300	322	8	stim08_sf2_pattern1_cont1_shape1.png	1	154	0	603.846456430841	603.94645681206	0.100000381218706	stim08_sf2_pattern1_cont1_shape1.png	2	1	1	1	1	1	0	0	0	0	0	0	0	0	0	0	0	0	1	19
632.970703125	0.100001260954741	1296324	323	10	stim10_sf2_pattern1_cont2_shape1.png	1	155	0	604.346452178776	604.44645343973	0.100001260954741	stim10_sf2_pattern1_cont2_shape1.png	2	1	2	1	1	2	0	0	0	0	0	0	0	0	0	0	0	0	1	19
633.470703125	0.100020615187532	1297348	324	3	stim03_sf1_pattern1_cont2_shape2.png	1	156	0	604.846417135886	604.946437751074	0.100020615187532	stim03_sf1_pattern1_cont2_shape2.png	1	1	2	2	1	4	0	0	0	0	0	0	0	0	0	0	0	0	1	19
633.970703125	0.100009178600885	1298372	325	15	stim15_sf2_pattern2_cont2_shape2.png	1	157	0	605.34641845549	605.446427634091	0.100009178600885	stim15_sf2_pattern2_cont2_shape2.png	2	2	2	2	1	4	0	0	0	0	0	0	0	0	0	0	0	0	1	19
634.470703125	0.0999874783992709	1299396	326	5	stim05_sf1_pattern2_cont1_shape2.png	1	158	0	605.846428572477	605.946416050876	0.0999874783992709	stim05_sf1_pattern2_cont1_shape2.png	1	2	1	2	1	3	0	0	0	0	0	0	0	0	0	0	0	0	1	19
634.970703125	0.0999631389859132	1300420	327	1	stim01_sf1_pattern1_cont1_shape2.png	1	159	0	606.346424613657	606.446387752643	0.0999631389859132	stim01_sf1_pattern1_cont1_shape2.png	1	1	1	2	1	3	0	0	0	0	0	0	0	0	0	0	0	0	1	19
635.470703125	0.0999959825312544	1301444	328	4	stim04_sf1_pattern2_cont1_shape1.png	1	160	0	606.846406872279	606.94640285481	0.0999959825312544	stim04_sf1_pattern2_cont1_shape1.png	1	2	1	1	1	1	0	0	0	0	0	0	0	0	0	0	0	0	1	19
635.970703125	0.0999965690207318	1302468	329	11	stim11_sf2_pattern1_cont2_shape2.png	1	161	0	607.346404086442	607.446400655463	0.0999965690207318	stim11_sf2_pattern1_cont2_shape2.png	2	1	2	2	1	4	0	0	0	0	0	0	0	0	0	0	0	0	1	19
636.47021484375	0.100003020430449	1303491	330	9	stim09_sf2_pattern1_cont1_shape2.png	1	162	0	607.846388397786	607.946391418216	0.100003020430449	stim09_sf2_pattern1_cont1_shape2.png	2	1	1	2	1	3	0	0	0	0	0	0	0	0	0	0	0	0	1	19
636.97021484375	0.0999986217429978	1304515	331	2	stim02_sf1_pattern1_cont2_shape1.png	1	163	0	608.346380333522	608.446378955265	0.0999986217429978	stim02_sf1_pattern1_cont2_shape1.png	1	1	2	1	1	2	0	0	0	0	0	0	0	0	0	0	0	0	1	19
657.578125	0.0999305886871298	1346720	332	12	stim12_sf2_pattern2_cont1_shape1.png	2	0	0	628.954363895329	629.054294484016	0.0999305886871298	stim12_sf2_pattern2_cont1_shape1.png	2	2	1	1	1	1	0	0	0	0	0	0	0	0	0	0	0	0	1	19
658.078125	0.100003313680645	1347744	333	2	stim02_sf1_pattern1_cont2_shape1.png	2	1	0	629.454334717357	629.554338031037	0.100003313680645	stim02_sf1_pattern1_cont2_shape1.png	1	1	2	1	1	2	0	0	0	0	0	0	0	0	0	0	0	0	1	19
658.578125	0.0999980352535204	1348768	334	1	stim01_sf1_pattern1_cont1_shape2.png	2	2	0	629.95432049493	630.054318530183	0.0999980352535204	stim01_sf1_pattern1_cont1_shape2.png	1	1	1	2	1	3	0	0	0	0	0	0	0	0	0	0	0	0	1	19
659.078125	0.0999945163021039	1349792	335	7	stim07_sf1_pattern2_cont2_shape2.png	2	3	0	630.454314190141	630.554308706443	0.0999945163021039	stim07_sf1_pattern2_cont2_shape2.png	1	2	2	2	1	4	0	0	0	0	0	0	0	0	0	0	0	0	1	19
659.578125	0.0999989149895555	1350816	336	6	stim06_sf1_pattern2_cont2_shape1.png	2	4	0	630.954317855718	631.054316770707	0.0999989149895555	stim06_sf1_pattern2_cont2_shape1.png	1	2	2	1	1	2	0	0	0	0	0	0	0	0	0	0	0	0	1	19
660.078125	0.09999041086121	1351840	337	14	stim14_sf2_pattern2_cont2_shape1.png	2	5	0	631.454300407582	631.554290818443	0.09999041086121	stim14_sf2_pattern2_cont2_shape1.png	2	2	2	1	1	2	0	0	0	0	0	0	0	0	0	0	0	0	1	19
660.578125	0.0999739890867204	1352864	338	8	stim08_sf2_pattern1_cont1_shape1.png	2	6	0	631.954284718926	632.054258708013	0.0999739890867204	stim08_sf2_pattern1_cont1_shape1.png	2	1	1	1	1	1	0	0	0	0	0	0	0	0	0	0	0	0	1	19
661.078125	0.0999995014826709	1353888	339	3	stim03_sf1_pattern1_cont2_shape2.png	2	7	0	632.45427401545	632.554273516933	0.0999995014826709	stim03_sf1_pattern1_cont2_shape2.png	1	1	2	2	1	4	0	0	0	0	0	0	0	0	0	0	0	0	1	19
661.578125	0.0999939298089885	1354912	340	15	stim15_sf2_pattern2_cont2_shape2.png	2	8	0	632.954268883645	633.054262813454	0.0999939298089885	stim15_sf2_pattern2_cont2_shape2.png	2	2	2	2	1	4	0	0	0	0	0	0	0	0	0	0	0	0	1	19
662.078125	0.099997448760405	1355936	341	5	stim05_sf1_pattern2_cont1_shape2.png	2	9	0	633.454257300433	633.554254749193	0.099997448760405	stim05_sf1_pattern2_cont1_shape2.png	1	2	1	2	1	3	0	0	0	0	0	0	0	0	0	0	0	0	1	19
662.578125	0.0999997947255906	1356960	342	13	stim13_sf2_pattern2_cont1_shape2.png	2	10	0	633.954246303711	634.054246098436	0.0999997947255906	stim13_sf2_pattern2_cont1_shape2.png	2	2	1	2	1	3	0	0	0	0	0	0	0	0	0	0	0	0	1	19
663.078125	0.0999956892846967	1357984	343	11	stim11_sf2_pattern1_cont2_shape2.png	2	11	0	634.454239705676	634.55423539496	0.0999956892846967	stim11_sf2_pattern1_cont2_shape2.png	2	1	2	2	1	4	0	0	0	0	0	0	0	0	0	0	0	0	1	19
663.578125	0.0999962757778121	1359008	344	0	stim00_sf1_pattern1_cont1_shape1.png	2	12	0	634.954230468429	635.054226744207	0.0999962757778121	stim00_sf1_pattern1_cont1_shape1.png	1	1	1	1	1	1	0	0	0	0	0	0	0	0	0	0	0	0	1	19
664.078125	0.0999936365624308	1360032	345	4	stim04_sf1_pattern2_cont1_shape1.png	2	13	0	635.454224456887	635.55421809345	0.0999936365624308	stim04_sf1_pattern2_cont1_shape1.png	1	2	1	1	1	1	0	0	0	0	0	0	0	0	0	0	0	0	1	19
664.578125	0.0999775080381369	1361056	346	10	stim10_sf2_pattern1_cont2_shape1.png	2	14	0	635.95422313728	636.054200645318	0.0999775080381369	stim10_sf2_pattern1_cont2_shape1.png	2	1	2	1	1	2	0	0	0	0	0	0	0	0	0	0	0	0	1	19
665.078125	0.0999698836421885	1362080	347	9	stim09_sf2_pattern1_cont1_shape2.png	2	15	0	636.454204516165	636.554174399807	0.0999698836421885	stim09_sf2_pattern1_cont1_shape2.png	2	1	1	2	1	3	0	0	0	0	0	0	0	0	0	0	0	0	1	19
665.578125	0.0999927568263956	1363104	348	6	stim06_sf1_pattern2_cont2_shape1.png	2	16	0	636.954198504623	637.05419126145	0.0999927568263956	stim06_sf1_pattern2_cont2_shape1.png	1	2	2	1	1	2	0	0	0	0	0	0	0	0	0	0	0	0	1	19
666.078125	0.0999936365624308	1364128	349	5	stim05_sf1_pattern2_cont1_shape2.png	2	17	0	637.45418897413	637.554182610693	0.0999936365624308	stim05_sf1_pattern2_cont1_shape2.png	1	2	1	2	1	3	0	0	0	0	0	0	0	0	0	0	0	0	1	19
666.578125	0.0999951027915813	1365152	350	0	stim00_sf1_pattern1_cont1_shape1.png	2	18	0	637.954178563901	638.054173666693	0.0999951027915813	stim00_sf1_pattern1_cont1_shape1.png	1	1	1	1	1	1	0	0	0	0	0	0	0	0	0	0	0	0	1	19
667.078125	0.0999962757778121	1366176	351	7	stim07_sf1_pattern2_cont2_shape2.png	2	19	0	638.45416434147	638.554160617248	0.0999962757778121	stim07_sf1_pattern2_cont2_shape2.png	1	2	2	2	1	4	0	0	0	0	0	0	0	0	0	0	0	0	1	19
667.578125	0.0999420252774144	1367200	352	3	stim03_sf1_pattern1_cont2_shape2.png	2	20	0	638.954163021866	639.054105047144	0.0999420252774144	stim03_sf1_pattern1_cont2_shape2.png	1	1	2	2	1	4	0	0	0	0	0	0	0	0	0	0	0	0	1	19
668.078125	0.100001847447857	1368224	353	10	stim10_sf2_pattern1_cont2_shape1.png	2	21	0	639.454122993797	639.554124841245	0.100001847447857	stim10_sf2_pattern1_cont2_shape1.png	2	1	2	1	1	2	0	0	0	0	0	0	0	0	0	0	0	0	1	19
668.578125	0.0999754553158709	1369248	354	1	stim01_sf1_pattern1_cont1_shape2.png	2	22	0	639.954144254127	640.054119709443	0.0999754553158709	stim01_sf1_pattern1_cont1_shape2.png	1	1	1	2	1	3	0	0	0	0	0	0	0	0	0	0	0	0	1	19
669.07763671875	0.100009471843805	1370271	355	2	stim02_sf1_pattern1_cont2_shape1.png	2	23	0	640.454114196418	640.554123668262	0.100009471843805	stim02_sf1_pattern1_cont2_shape1.png	1	1	2	1	1	2	0	0	0	0	0	0	0	0	0	0	0	0	1	19
669.57763671875	0.0999977420033247	1371295	356	15	stim15_sf2_pattern2_cont2_shape2.png	2	24	0	640.954125779634	641.054123521637	0.0999977420033247	stim15_sf2_pattern2_cont2_shape2.png	2	2	2	2	1	4	0	0	0	0	0	0	0	0	0	0	0	0	1	19
670.07763671875	0.100025893614657	1372319	357	12	stim12_sf2_pattern2_cont1_shape1.png	2	25	0	641.454090443498	641.554116337113	0.100025893614657	stim12_sf2_pattern2_cont1_shape1.png	2	2	1	1	1	1	0	0	0	0	0	0	0	0	0	0	0	0	1	19
670.57763671875	0.0999305886871298	1373343	358	11	stim11_sf2_pattern1_cont2_shape2.png	2	26	0	641.954104665925	642.054035254612	0.0999305886871298	stim11_sf2_pattern1_cont2_shape2.png	2	1	2	2	1	4	0	0	0	0	0	0	0	0	0	0	0	0	1	19
671.07763671875	0.099995396038139	1374367	359	4	stim04_sf1_pattern2_cont1_shape1.png	2	27	0	642.45409249622	642.554087892258	0.099995396038139	stim04_sf1_pattern2_cont1_shape1.png	1	2	1	1	1	1	0	0	0	0	0	0	0	0	0	0	0	0	1	19
671.57763671875	0.100020615187532	1375391	360	13	stim13_sf2_pattern2_cont1_shape2.png	2	28	0	642.954063611494	643.054084226682	0.100020615187532	stim13_sf2_pattern2_cont1_shape2.png	2	2	1	2	1	3	0	0	0	0	0	0	0	0	0	0	0	0	1	19
672.07763671875	0.0999936365624308	1376415	361	9	stim09_sf2_pattern1_cont1_shape2.png	2	29	0	643.4540866313	643.554080267862	0.0999936365624308	stim09_sf2_pattern1_cont1_shape2.png	2	1	1	2	1	3	0	0	0	0	0	0	0	0	0	0	0	0	1	19
672.57763671875	0.0999807337429957	1377439	362	8	stim08_sf2_pattern1_cont1_shape1.png	2	30	0	643.954092936088	644.054073669831	0.0999807337429957	stim08_sf2_pattern1_cont1_shape1.png	2	1	1	1	1	1	0	0	0	0	0	0	0	0	0	0	0	0	1	19
673.07763671875	0.100025600368099	1378463	363	5	stim05_sf1_pattern2_cont1_shape2.png	2	31	1	644.454061998644	644.554087599012	0.100025600368099	stim05_sf1_pattern2_cont1_shape2.png	1	2	1	2	1	3	0	0	0	0	0	0	0	0	0	0	0	0	1	19
673.57763671875	0.0999986217429978	1379487	364	5	stim05_sf1_pattern2_cont1_shape2.png	2	32	1	644.95405891956	645.054057541303	0.0999986217429978	stim05_sf1_pattern2_cont1_shape2.png	1	2	1	2	1	3	0	0	0	0	0	0	0	0	0	0	0	0	1	19
674.07763671875	0.0999971555138472	1380511	365	1	stim01_sf1_pattern1_cont1_shape2.png	2	33	2	645.454041471428	645.554038626942	0.0999971555138472	stim01_sf1_pattern1_cont1_shape2.png	1	1	1	2	1	3	0	0	0	0	0	0	0	0	0	0	0	0	1	19
674.57763671875	0.0999648984616215	1381535	366	9	stim09_sf2_pattern1_cont1_shape2.png	2	34	2	645.954033700411	646.053998598873	0.0999648984616215	stim09_sf2_pattern1_cont1_shape2.png	2	1	1	2	1	3	0	0	0	0	0	0	0	0	0	0	0	0	1	19
675.07763671875	0.100042608635704	1382559	367	14	stim14_sf2_pattern2_cont2_shape1.png	2	35	0	646.453987807421	646.554030416057	0.100042608635704	stim14_sf2_pattern2_cont2_shape1.png	2	2	2	1	1	2	0	0	0	0	0	0	0	0	0	0	0	0	1	19
675.57763671875	0.0999962757778121	1383583	368	6	stim06_sf1_pattern2_cont2_shape1.png	2	36	0	646.954015812407	647.054012088185	0.0999962757778121	stim06_sf1_pattern2_cont2_shape1.png	1	2	2	1	1	2	0	0	0	0	0	0	0	0	0	0	0	0	1	19
676.07763671875	0.0999909973506874	1384607	369	15	stim15_sf2_pattern2_cont2_shape2.png	2	37	0	647.454013613064	647.554004610414	0.0999909973506874	stim15_sf2_pattern2_cont2_shape2.png	2	2	2	2	1	4	0	0	0	0	0	0	0	0	0	0	0	0	1	19
676.57763671875	0.0999678309199226	1385631	370	11	stim11_sf2_pattern1_cont2_shape2.png	2	38	0	647.953997924407	648.053965755327	0.0999678309199226	stim11_sf2_pattern1_cont2_shape2.png	2	1	2	2	1	4	0	0	0	0	0	0	0	0	0	0	0	0	1	19
677.07763671875	0.0999965690207318	1386655	371	13	stim13_sf2_pattern2_cont1_shape2.png	2	39	0	648.453988393914	648.553984962935	0.0999965690207318	stim13_sf2_pattern2_cont1_shape2.png	2	2	1	2	1	3	0	0	0	0	0	0	0	0	0	0	0	0	1	19
677.57763671875	0.0999977420069627	1387679	372	9	stim09_sf2_pattern1_cont1_shape2.png	2	40	0	648.953978276928	649.053976018935	0.0999977420069627	stim09_sf2_pattern1_cont1_shape2.png	2	1	1	2	1	3	0	0	0	0	0	0	0	0	0	0	0	0	1	19
678.07763671875	0.0999971555138472	1388703	373	12	stim12_sf2_pattern2_cont1_shape1.png	2	41	0	649.453971092404	649.553968247918	0.0999971555138472	stim12_sf2_pattern2_cont1_shape1.png	2	2	1	1	1	1	0	0	0	0	0	0	0	0	0	0	0	0	1	19
678.57763671875	0.0999470104579814	1389727	374	3	stim03_sf1_pattern1_cont2_shape2.png	2	42	0	649.953958629452	650.05390563991	0.0999470104579814	stim03_sf1_pattern1_cont2_shape2.png	1	1	2	2	1	4	0	0	0	0	0	0	0	0	0	0	0	0	1	19
679.07763671875	0.0999968622709275	1390751	375	14	stim14_sf2_pattern2_cont2_shape1.png	2	43	0	650.453952031417	650.553948893688	0.0999968622709275	stim14_sf2_pattern2_cont2_shape1.png	2	2	2	1	1	2	0	0	0	0	0	0	0	0	0	0	0	0	1	19
679.57763671875	0.0999968622709275	1391775	376	10	stim10_sf2_pattern1_cont2_shape1.png	2	44	0	650.953943967153	651.053940829424	0.0999968622709275	stim10_sf2_pattern1_cont2_shape1.png	2	1	2	1	1	2	0	0	0	0	0	0	0	0	0	0	0	0	1	19
680.07763671875	0.0999948095450236	1392799	377	1	stim01_sf1_pattern1_cont1_shape2.png	2	45	0	651.453933850171	651.553928659716	0.0999948095450236	stim01_sf1_pattern1_cont1_shape2.png	1	1	1	2	1	3	0	0	0	0	0	0	0	0	0	0	0	0	1	19
680.57763671875	0.0999522888887441	1393823	378	5	stim05_sf1_pattern2_cont1_shape2.png	2	46	0	651.953920800726	652.053873089615	0.0999522888887441	stim05_sf1_pattern2_cont1_shape2.png	1	2	1	2	1	3	0	0	0	0	0	0	0	0	0	0	0	0	1	19
681.07763671875	0.0999678309199226	1394847	379	8	stim08_sf2_pattern1_cont1_shape1.png	2	47	0	652.453916841907	652.553884672827	0.0999678309199226	stim08_sf2_pattern1_cont1_shape1.png	2	1	1	1	1	1	0	0	0	0	0	0	0	0	0	0	0	0	1	19
681.57763671875	0.0999992082361132	1395871	380	2	stim02_sf1_pattern1_cont2_shape1.png	2	48	0	652.953904085709	653.053903293945	0.0999992082361132	stim02_sf1_pattern1_cont2_shape1.png	1	1	2	1	1	2	0	0	0	0	0	0	0	0	0	0	0	0	1	19
682.07763671875	0.0999939298089885	1396895	381	4	stim04_sf1_pattern2_cont1_shape1.png	2	49	0	653.453899833643	653.553893763452	0.0999939298089885	stim04_sf1_pattern2_cont1_shape1.png	1	2	1	1	1	1	0	0	0	0	0	0	0	0	0	0	0	0	1	19
682.57763671875	0.0999977420069627	1397919	382	7	stim07_sf1_pattern2_cont2_shape2.png	2	50	0	653.953888250428	654.053885992435	0.0999977420069627	stim07_sf1_pattern2_cont2_shape2.png	1	2	2	2	1	4	0	0	0	0	0	0	0	0	0	0	0	0	1	19
683.07763671875	0.0999892378749792	1398943	383	0	stim00_sf1_pattern1_cont1_shape1.png	2	51	0	654.453883705115	654.55387294299	0.0999892378749792	stim00_sf1_pattern1_cont1_shape1.png	1	1	1	1	1	1	0	0	0	0	0	0	0	0	0	0	0	0	1	19
683.57763671875	0.0999912905936071	1399967	384	3	stim03_sf1_pattern1_cont2_shape2.png	2	52	0	654.953870362428	655.053861653021	0.0999912905936071	stim03_sf1_pattern1_cont2_shape2.png	1	1	2	2	1	4	0	0	0	0	0	0	0	0	0	0	0	0	1	19
684.07763671875	0.0999956892846967	1400991	385	0	stim00_sf1_pattern1_cont1_shape1.png	2	53	0	655.453866990098	655.553862679382	0.0999956892846967	stim00_sf1_pattern1_cont1_shape1.png	1	1	1	1	1	1	0	0	0	0	0	0	0	0	0	0	0	0	1	19
684.57763671875	0.0999962757778121	1402015	386	5	stim05_sf1_pattern2_cont1_shape2.png	2	54	0	655.953850714948	656.053846990726	0.0999962757778121	stim05_sf1_pattern2_cont1_shape2.png	1	2	1	2	1	3	0	0	0	0	0	0	0	0	0	0	0	0	1	19
685.07763671875	0.0999437847567606	1403039	387	12	stim12_sf2_pattern2_cont1_shape1.png	2	55	0	656.453849688587	656.553793473344	0.0999437847567606	stim12_sf2_pattern2_cont1_shape1.png	2	2	1	1	1	1	0	0	0	0	0	0	0	0	0	0	0	0	1	19
685.57763671875	0.0999778012846946	1404063	388	9	stim09_sf2_pattern1_cont1_shape2.png	2	56	0	656.953830774226	657.053808575511	0.0999778012846946	stim09_sf2_pattern1_cont1_shape2.png	2	1	1	2	1	3	0	0	0	0	0	0	0	0	0	0	0	0	1	19
686.07763671875	0.0999725228575699	1405087	389	6	stim06_sf1_pattern2_cont2_shape1.png	2	57	0	657.453823296455	657.553795819313	0.0999725228575699	stim06_sf1_pattern2_cont2_shape1.png	1	2	2	1	1	2	0	0	0	0	0	0	0	0	0	0	0	0	1	19
686.5771484375	0.100000087975786	1406110	390	13	stim13_sf2_pattern2_cont1_shape2.png	2	58	0	657.953813179469	658.053813267445	0.100000087975786	stim13_sf2_pattern2_cont1_shape2.png	2	2	1	2	1	3	0	0	0	0	0	0	0	0	0	0	0	0	1	19
687.0771484375	0.0999977420069627	1407134	391	1	stim01_sf1_pattern1_cont1_shape2.png	2	59	0	658.453810686879	658.553808428886	0.0999977420069627	stim01_sf1_pattern1_cont1_shape2.png	1	1	1	2	1	3	0	0	0	0	0	0	0	0	0	0	0	0	1	19
687.5771484375	0.0999983284964401	1408158	392	8	stim08_sf2_pattern1_cont1_shape1.png	2	60	0	658.953799103667	659.053797432163	0.0999983284964401	stim08_sf2_pattern1_cont1_shape1.png	2	1	1	1	1	1	0	0	0	0	0	0	0	0	0	0	0	0	1	19
688.0771484375	0.100013284041779	1409182	393	2	stim02_sf1_pattern1_cont2_shape1.png	2	61	0	659.453792505632	659.553805789674	0.100013284041779	stim02_sf1_pattern1_cont2_shape1.png	1	1	2	1	1	2	0	0	0	0	0	0	0	0	0	0	0	0	1	19
688.5771484375	0.100005952892388	1410206	394	15	stim15_sf2_pattern2_cont2_shape2.png	2	62	0	659.953784734615	660.053790687507	0.100005952892388	stim15_sf2_pattern2_cont2_shape2.png	2	2	2	2	1	4	0	0	0	0	0	0	0	0	0	0	0	0	1	19
689.0771484375	0.0999877716421906	1411230	395	14	stim14_sf2_pattern2_cont2_shape1.png	2	63	0	660.453779602813	660.553767374455	0.0999877716421906	stim14_sf2_pattern2_cont2_shape1.png	2	2	2	1	1	2	0	0	0	0	0	0	0	0	0	0	0	0	1	19
689.5771484375	0.0999745755798358	1412254	396	10	stim10_sf2_pattern1_cont2_shape1.png	2	64	0	660.953765380382	661.053739955962	0.0999745755798358	stim10_sf2_pattern1_cont2_shape1.png	2	1	2	1	1	2	0	0	0	0	0	0	0	0	0	0	0	0	1	19
690.0771484375	0.100007712368097	1413278	397	4	stim04_sf1_pattern2_cont1_shape1.png	2	65	0	661.453751157955	661.553758870323	0.100007712368097	stim04_sf1_pattern2_cont1_shape1.png	1	2	1	1	1	1	0	0	0	0	0	0	0	0	0	0	0	0	1	19
690.5771484375	0.0999912905936071	1414302	398	7	stim07_sf1_pattern2_cont2_shape2.png	2	66	0	661.953746319399	662.053737609993	0.0999912905936071	stim07_sf1_pattern2_cont2_shape2.png	1	2	2	2	1	4	0	0	0	0	0	0	0	0	0	0	0	0	1	19
691.0771484375	0.0999962757778121	1415326	399	11	stim11_sf2_pattern1_cont2_shape2.png	2	67	0	662.453736202413	662.553732478191	0.0999962757778121	stim11_sf2_pattern1_cont2_shape2.png	2	1	2	2	1	4	0	0	0	0	0	0	0	0	0	0	0	0	1	19
691.5771484375	0.0999959825312544	1416350	400	6	stim06_sf1_pattern2_cont2_shape1.png	2	68	0	662.953728724642	663.053724707173	0.0999959825312544	stim06_sf1_pattern2_cont2_shape1.png	1	2	2	1	1	2	0	0	0	0	0	0	0	0	0	0	0	0	1	19
692.0771484375	0.0999854256806429	1417374	401	9	stim09_sf2_pattern1_cont1_shape2.png	2	69	0	663.453728871264	663.553714296944	0.0999854256806429	stim09_sf2_pattern1_cont1_shape2.png	2	1	1	2	1	3	0	0	0	0	0	0	0	0	0	0	0	0	1	19
692.5771484375	0.099983372954739	1418398	402	4	stim04_sf1_pattern2_cont1_shape1.png	2	70	0	663.953712596118	664.053695969073	0.099983372954739	stim04_sf1_pattern2_cont1_shape1.png	1	2	1	1	1	1	0	0	0	0	0	0	0	0	0	0	0	0	1	19
693.0771484375	0.0999971555138472	1419422	403	13	stim13_sf2_pattern2_cont1_shape2.png	2	71	0	664.45369983992	664.553696995434	0.0999971555138472	stim13_sf2_pattern2_cont1_shape2.png	2	2	1	2	1	3	0	0	0	0	0	0	0	0	0	0	0	0	1	19
693.5771484375	0.0999939298089885	1420446	404	7	stim07_sf1_pattern2_cont2_shape2.png	2	72	0	664.953692655392	665.053686585201	0.0999939298089885	stim07_sf1_pattern2_cont2_shape2.png	1	2	2	2	1	4	0	0	0	0	0	0	0	0	0	0	0	0	1	19
694.0771484375	0.0999936365624308	1421470	405	11	stim11_sf2_pattern1_cont2_shape2.png	2	73	0	665.453684297885	665.553677934447	0.0999936365624308	stim11_sf2_pattern1_cont2_shape2.png	2	1	2	2	1	4	0	0	0	0	0	0	0	0	0	0	0	0	1	19
694.5771484375	0.099997448760405	1422494	406	14	stim14_sf2_pattern2_cont2_shape1.png	2	74	0	665.953671541687	666.053668990447	0.099997448760405	stim14_sf2_pattern2_cont2_shape1.png	2	2	2	1	1	2	0	0	0	0	0	0	0	0	0	0	0	0	1	19
695.0771484375	0.0999915838438028	1423518	407	2	stim02_sf1_pattern1_cont2_shape1.png	2	75	0	666.453669635586	666.55366121943	0.0999915838438028	stim02_sf1_pattern1_cont2_shape1.png	1	1	2	1	1	2	0	0	0	0	0	0	0	0	0	0	0	0	1	19
695.5771484375	0.0999948095486616	1424542	408	3	stim03_sf1_pattern1_cont2_shape2.png	2	76	0	666.953656586142	667.05365139569	0.0999948095486616	stim03_sf1_pattern1_cont2_shape2.png	1	1	2	2	1	4	0	0	0	0	0	0	0	0	0	0	0	0	1	19
696.0771484375	0.0999948095486616	1425566	409	15	stim15_sf2_pattern2_cont2_shape2.png	2	77	0	667.453647935388	667.553642744937	0.0999948095486616	stim15_sf2_pattern2_cont2_shape2.png	2	2	2	2	1	4	0	0	0	0	0	0	0	0	0	0	0	0	1	19
696.5771484375	0.099927362985909	1426590	410	0	stim00_sf1_pattern1_cont1_shape1.png	2	78	0	667.953638111649	668.053565474635	0.099927362985909	stim00_sf1_pattern1_cont1_shape1.png	1	1	1	1	1	1	0	0	0	0	0	0	0	0	0	0	0	0	1	19
697.0771484375	0.0999660714478523	1427614	411	12	stim12_sf2_pattern2_cont1_shape1.png	2	79	0	668.453632100107	668.553598171555	0.0999660714478523	stim12_sf2_pattern2_cont1_shape1.png	2	2	1	1	1	1	0	0	0	0	0	0	0	0	0	0	0	0	1	19
697.5771484375	0.0999951027915813	1428638	412	8	stim08_sf2_pattern1_cont1_shape1.png	2	80	0	668.953622276371	669.053617379162	0.0999951027915813	stim08_sf2_pattern1_cont1_shape1.png	2	1	1	1	1	1	0	0	0	0	0	0	0	0	0	0	0	0	1	19
698.0771484375	0.0999907041041297	1429662	413	10	stim10_sf2_pattern1_cont2_shape1.png	2	81	0	669.453620956763	669.553611660867	0.0999907041041297	stim10_sf2_pattern1_cont2_shape1.png	2	1	2	1	1	2	0	0	0	0	0	0	0	0	0	0	0	0	1	19
698.5771484375	0.0999868919061555	1430686	414	1	stim01_sf1_pattern1_cont1_shape2.png	2	82	0	669.953609960041	670.053596851947	0.0999868919061555	stim01_sf1_pattern1_cont1_shape2.png	1	1	1	2	1	3	0	0	0	0	0	0	0	0	0	0	0	0	1	19
699.0771484375	0.0999965690207318	1431710	415	5	stim05_sf1_pattern2_cont1_shape2.png	2	83	0	670.453595737614	670.553592306635	0.0999965690207318	stim05_sf1_pattern2_cont1_shape2.png	1	2	1	2	1	3	0	0	0	0	0	0	0	0	0	0	0	0	1	19
699.5771484375	0.0999690039061534	1432734	416	15	stim15_sf2_pattern2_cont2_shape2.png	2	84	0	670.953587086857	671.053556090763	0.0999690039061534	stim15_sf2_pattern2_cont2_shape2.png	2	2	2	2	1	4	0	0	0	0	0	0	0	0	0	0	0	0	1	19
700.0771484375	0.0999637254790287	1433758	417	0	stim00_sf1_pattern1_cont1_shape1.png	2	85	0	671.453583128037	671.553546853516	0.0999637254790287	stim00_sf1_pattern1_cont1_shape1.png	1	1	1	1	1	1	0	0	0	0	0	0	0	0	0	0	0	0	1	19
700.5771484375	0.0999948095450236	1434782	418	11	stim11_sf2_pattern1_cont2_shape2.png	2	86	0	671.95356392043	672.053558729975	0.0999948095450236	stim11_sf2_pattern1_cont2_shape2.png	2	1	2	2	1	4	0	0	0	0	0	0	0	0	0	0	0	0	1	19
701.0771484375	0.0999933433158731	1435806	419	6	stim06_sf1_pattern2_cont2_shape1.png	2	87	0	672.453566999513	672.553560342829	0.0999933433158731	stim06_sf1_pattern2_cont2_shape1.png	1	2	2	1	1	2	0	0	0	0	0	0	0	0	0	0	0	0	1	19
701.5771484375	0.0999892378749792	1436830	420	12	stim12_sf2_pattern2_cont1_shape1.png	2	88	0	672.95354515269	673.053534390565	0.0999892378749792	stim12_sf2_pattern2_cont1_shape1.png	2	2	1	1	1	1	0	0	0	0	0	0	0	0	0	0	0	0	1	19
702.0771484375	0.0999983285000781	1437854	421	1	stim01_sf1_pattern1_cont1_shape2.png	2	89	0	673.453540314131	673.553538642631	0.0999983285000781	stim01_sf1_pattern1_cont1_shape2.png	1	1	1	2	1	3	0	0	0	0	0	0	0	0	0	0	0	0	1	19
702.5771484375	0.099983372954739	1438878	422	13	stim13_sf2_pattern2_cont1_shape2.png	2	90	0	673.953555416298	674.053538789252	0.099983372954739	stim13_sf2_pattern2_cont1_shape2.png	2	2	1	2	1	3	0	0	0	0	0	0	0	0	0	0	0	0	1	19
703.0771484375	0.100019735451497	1439902	423	4	stim04_sf1_pattern2_cont1_shape1.png	2	91	0	674.453524772096	674.553544507547	0.100019735451497	stim04_sf1_pattern2_cont1_shape1.png	1	2	1	1	1	1	0	0	0	0	0	0	0	0	0	0	0	0	1	19
703.5771484375	0.0999742823332781	1440926	424	8	stim08_sf2_pattern1_cont1_shape1.png	2	92	0	674.953492368422	675.053466650756	0.0999742823332781	stim08_sf2_pattern1_cont1_shape1.png	2	1	1	1	1	1	0	0	0	0	0	0	0	0	0	0	0	0	1	19
704.07666015625	0.0999725228539319	1441949	425	9	stim09_sf2_pattern1_cont1_shape2.png	2	93	0	675.453534742461	675.553507265315	0.0999725228539319	stim09_sf2_pattern1_cont1_shape2.png	2	1	1	2	1	3	0	0	0	0	0	0	0	0	0	0	0	0	1	19
704.57666015625	0.100024720632064	1442973	426	3	stim03_sf1_pattern1_cont2_shape2.png	2	94	0	675.953504098259	676.053528818891	0.100024720632064	stim03_sf1_pattern1_cont2_shape2.png	1	1	2	2	1	4	0	0	0	0	0	0	0	0	0	0	0	0	1	19
705.07666015625	0.0999927568263956	1443997	427	2	stim02_sf1_pattern1_cont2_shape1.png	2	95	0	676.453486650127	676.553479406954	0.0999927568263956	stim02_sf1_pattern1_cont2_shape1.png	1	1	2	1	1	2	0	0	0	0	0	0	0	0	0	0	0	0	1	19
705.57666015625	0.0999751620693132	1445021	428	5	stim05_sf1_pattern2_cont1_shape2.png	2	96	0	676.953492368422	677.053467530492	0.0999751620693132	stim05_sf1_pattern2_cont1_shape2.png	1	2	1	2	1	3	0	0	0	0	0	0	0	0	0	0	0	0	1	19
706.07666015625	0.100001554204937	1446045	429	10	stim10_sf2_pattern1_cont2_shape1.png	2	97	0	677.453463776943	677.553465331148	0.100001554204937	stim10_sf2_pattern1_cont2_shape1.png	2	1	2	1	1	2	0	0	0	0	0	0	0	0	0	0	0	0	1	19
706.57666015625	0.0999959825312544	1447069	430	7	stim07_sf1_pattern2_cont2_shape2.png	2	98	0	677.953458938387	678.053454920919	0.0999959825312544	stim07_sf1_pattern2_cont2_shape2.png	1	2	2	2	1	4	0	0	0	0	0	0	0	0	0	0	0	0	1	19
707.07666015625	0.0999956892846967	1448093	431	14	stim14_sf2_pattern2_cont2_shape1.png	2	99	0	678.453449114648	678.553444803933	0.0999956892846967	stim14_sf2_pattern2_cont2_shape1.png	2	2	2	1	1	2	0	0	0	0	0	0	0	0	0	0	0	0	1	19
707.57666015625	0.0999757485624286	1449117	432	15	stim15_sf2_pattern2_cont2_shape2.png	2	100	0	678.953440757137	679.0534165057	0.0999757485624286	stim15_sf2_pattern2_cont2_shape2.png	2	2	2	2	1	4	0	0	0	0	0	0	0	0	0	0	0	0	1	19
708.07666015625	0.099997448760405	1450141	433	11	stim11_sf2_pattern1_cont2_shape2.png	2	101	0	679.453432106384	679.553429555144	0.099997448760405	stim11_sf2_pattern1_cont2_shape2.png	2	1	2	2	1	4	0	0	0	0	0	0	0	0	0	0	0	0	1	19
708.57666015625	0.0999546348539297	1451165	434	3	stim03_sf1_pattern1_cont2_shape2.png	2	102	0	679.953424335366	680.05337897022	0.0999546348539297	stim03_sf1_pattern1_cont2_shape2.png	1	1	2	2	1	4	0	0	0	0	0	0	0	0	0	0	0	0	1	19
709.07666015625	0.0999977420069627	1452189	435	4	stim04_sf1_pattern2_cont1_shape1.png	2	103	0	680.453414511627	680.553412253634	0.0999977420069627	stim04_sf1_pattern2_cont1_shape1.png	1	2	1	1	1	1	0	0	0	0	0	0	0	0	0	0	0	0	1	19
709.57666015625	0.0999971555174852	1453213	436	1	stim01_sf1_pattern1_cont1_shape2.png	2	104	0	680.953404981134	681.053402136651	0.0999971555174852	stim01_sf1_pattern1_cont1_shape2.png	1	1	1	2	1	3	0	0	0	0	0	0	0	0	0	0	0	0	1	19
710.07666015625	0.0999971555138472	1454237	437	2	stim02_sf1_pattern1_cont2_shape1.png	2	105	0	681.453396916873	681.553394072387	0.0999971555138472	stim02_sf1_pattern1_cont2_shape1.png	1	1	2	1	1	2	0	0	0	0	0	0	0	0	0	0	0	0	1	19
710.57666015625	0.0999980352535204	1455261	438	6	stim06_sf1_pattern2_cont2_shape1.png	2	106	0	681.953385333658	682.053383368911	0.0999980352535204	stim06_sf1_pattern2_cont2_shape1.png	1	2	2	1	1	2	0	0	0	0	0	0	0	0	0	0	0	0	1	19
711.07666015625	0.099993343319511	1456285	439	9	stim09_sf2_pattern1_cont1_shape2.png	2	107	0	682.45337902887	682.553372372189	0.099993343319511	stim09_sf2_pattern1_cont1_shape2.png	2	1	1	2	1	3	0	0	0	0	0	0	0	0	0	0	0	0	1	19
711.57666015625	0.0999757485624286	1457309	440	0	stim00_sf1_pattern1_cont1_shape1.png	2	108	0	682.953371844345	683.053347592908	0.0999757485624286	stim00_sf1_pattern1_cont1_shape1.png	1	1	1	1	1	1	0	0	0	0	0	0	0	0	0	0	0	0	1	19
712.07666015625	0.0999977420069627	1458333	441	5	stim05_sf1_pattern2_cont1_shape2.png	2	109	0	683.453360554377	683.553358296384	0.0999977420069627	stim05_sf1_pattern2_cont1_shape2.png	1	2	1	2	1	3	0	0	0	0	0	0	0	0	0	0	0	0	1	19
712.57666015625	0.0999962757778121	1459357	442	7	stim07_sf1_pattern2_cont2_shape2.png	2	110	0	683.953349264408	684.053345540186	0.0999962757778121	stim07_sf1_pattern2_cont2_shape2.png	1	2	2	2	1	4	0	0	0	0	0	0	0	0	0	0	0	0	1	19
713.07666015625	0.0999933433158731	1460381	443	12	stim12_sf2_pattern2_cont1_shape1.png	2	111	0	684.453349411033	684.553342754349	0.0999933433158731	stim12_sf2_pattern2_cont1_shape1.png	2	2	1	1	1	1	0	0	0	0	0	0	0	0	0	0	0	0	1	19
713.57666015625	0.100010644826398	1461405	444	14	stim14_sf2_pattern2_cont2_shape1.png	2	112	0	684.953334015619	685.053344660446	0.100010644826398	stim14_sf2_pattern2_cont2_shape1.png	2	2	2	1	1	2	0	0	0	0	0	0	0	0	0	0	0	0	1	19
714.07666015625	0.0999965690243698	1462429	445	10	stim10_sf2_pattern1_cont2_shape1.png	2	113	0	685.453322725651	685.553319294675	0.0999965690243698	stim10_sf2_pattern1_cont2_shape1.png	2	1	2	1	1	2	0	0	0	0	0	0	0	0	0	0	0	0	1	19
714.57666015625	0.0999992082361132	1463453	446	8	stim08_sf2_pattern1_cont1_shape1.png	2	114	0	685.953316420862	686.053315629099	0.0999992082361132	stim08_sf2_pattern1_cont1_shape1.png	2	1	1	1	1	1	0	0	0	0	0	0	0	0	0	0	0	0	1	19
715.07666015625	0.0999971555138472	1464477	447	13	stim13_sf2_pattern2_cont1_shape2.png	2	115	0	686.453309822831	686.553306978345	0.0999971555138472	stim13_sf2_pattern2_cont1_shape2.png	2	2	1	2	1	3	0	0	0	0	0	0	0	0	0	0	0	0	1	19
