onset	duration	onsetsample	eventnumber	stimnumber	stimname	blocknumber	trialnumber	istarget	time_stimon	time_stimoff	stimdur	stimfilename	spatial_freq	pattern	contrast	shape	is_fast_stream	category	ppt_1_response	ppt_1_keypressed	ppt_1_rt	ppt_1_correct	ppt_2_response	ppt_2_keypressed	ppt_2_rt	ppt_2_correct	button1	button2	button3	button4	task_part_number	subjectnr
152.45751953125	0.0999247537342853	312233	0	4	stim04_sf1_pattern2_cont1_shape1.png	0	0	0	265.300111491154	265.400036244889	0.0999247537342853	stim04_sf1_pattern2_cont1_shape1.png	1	2	1	1	1	1	0	0	0	0	0	0	0	0	0	0	0	0	1	8
152.9658203125	0.0999558375388006	313274	1	7	stim07_sf1_pattern2_cont2_shape2.png	0	1	0	265.808385061475	265.908340899014	0.0999558375388006	stim07_sf1_pattern2_cont2_shape2.png	1	2	2	2	1	2	0	0	0	0	0	0	0	0	0	0	0	0	1	8
153.4658203125	0.106363793115634	314298	2	12	stim12_sf2_pattern2_cont1_shape1.png	0	2	0	266.326974935897	266.433338729013	0.106363793115634	stim12_sf2_pattern2_cont1_shape1.png	2	2	1	1	1	3	0	0	0	0	0	0	0	0	0	0	0	0	1	8
153.99072265625	0.0999757780919026	315373	3	9	stim09_sf2_pattern1_cont1_shape2.png	0	3	0	266.833367936059	266.933343714151	0.0999757780919026	stim09_sf2_pattern1_cont1_shape2.png	2	1	1	2	1	3	0	0	0	0	0	0	0	0	0	0	0	0	1	8
154.49072265625	0.0999933726984636	316397	4	1	stim01_sf1_pattern1_cont1_shape2.png	0	4	0	267.333313392779	267.433306765478	0.0999933726984636	stim01_sf1_pattern1_cont1_shape2.png	1	1	1	2	1	1	0	0	0	0	0	0	0	0	0	0	0	0	1	8
154.99072265625	0.0999968916194121	317421	5	8	stim08_sf2_pattern1_cont1_shape1.png	0	5	0	267.833326002247	267.933322893867	0.0999968916194121	stim08_sf2_pattern1_cont1_shape1.png	2	1	1	1	1	3	0	0	0	0	0	0	0	0	0	0	0	0	1	8
155.49072265625	0.0999872145862355	318445	6	10	stim10_sf2_pattern1_cont2_shape1.png	0	6	0	268.333318964405	268.433306178991	0.0999872145862355	stim10_sf2_pattern1_cont2_shape1.png	2	1	2	1	1	4	0	0	0	0	0	0	0	0	0	0	0	0	1	8
155.99072265625	0.0999241672470816	319469	7	2	stim02_sf1_pattern1_cont2_shape1.png	0	7	0	268.833367936059	268.933292103306	0.0999241672470816	stim02_sf1_pattern1_cont2_shape1.png	1	1	2	1	1	2	0	0	0	0	0	0	0	0	0	0	0	0	1	8
156.49072265625	0.100010087574447	320493	8	15	stim15_sf2_pattern2_cont2_shape2.png	0	8	0	269.333283481949	269.433293569523	0.100010087574447	stim15_sf2_pattern2_cont2_shape2.png	2	2	2	2	1	4	0	0	0	0	0	0	0	0	0	0	0	0	1	8
156.99072265625	0.0999751916051537	321517	9	5	stim05_sf1_pattern2_cont1_shape2.png	0	9	0	269.833291106278	269.933266297884	0.0999751916051537	stim05_sf1_pattern2_cont1_shape2.png	1	2	1	2	1	1	0	0	0	0	0	0	0	0	0	0	0	0	1	8
157.49072265625	0.099994838915336	322541	10	6	stim06_sf1_pattern2_cont2_shape1.png	0	10	0	270.333279963028	270.433274801943	0.099994838915336	stim06_sf1_pattern2_cont2_shape1.png	1	2	2	1	1	2	0	0	0	0	0	0	0	0	0	0	0	0	1	8
157.99072265625	0.100014779469348	323565	11	14	stim14_sf2_pattern2_cont2_shape1.png	0	11	0	270.833259142744	270.933273922213	0.100014779469348	stim14_sf2_pattern2_cont2_shape1.png	2	2	2	1	1	4	0	0	0	0	0	0	0	0	0	0	0	0	1	8
158.49072265625	0.100003636218389	324589	12	11	stim11_sf2_pattern1_cont2_shape2.png	0	12	0	271.333224833262	271.43322846948	0.100003636218389	stim11_sf2_pattern1_cont2_shape2.png	2	1	2	2	1	4	0	0	0	0	0	0	0	0	0	0	0	0	1	8
158.99072265625	0.0999652213286026	325613	13	3	stim03_sf1_pattern1_cont2_shape2.png	0	13	0	271.83324008192	271.933205303249	0.0999652213286026	stim03_sf1_pattern1_cont2_shape2.png	1	1	2	2	1	2	0	0	0	0	0	0	0	0	0	0	0	0	1	8
159.49072265625	0.099999530810237	326637	14	13	stim13_sf2_pattern2_cont1_shape2.png	0	14	0	272.333213690011	272.433213220821	0.099999530810237	stim13_sf2_pattern2_cont1_shape2.png	2	2	1	2	1	3	0	0	0	0	0	0	0	0	0	0	0	0	1	8
159.99072265625	0.100016832173424	327661	15	0	stim00_sf1_pattern1_cont1_shape1.png	0	15	0	272.83320166703	272.933218499204	0.100016832173424	stim00_sf1_pattern1_cont1_shape1.png	1	1	1	1	1	1	0	0	0	0	0	0	0	0	0	0	0	0	1	8
160.49072265625	0.0999971848627865	328685	16	9	stim09_sf2_pattern1_cont1_shape2.png	0	16	0	273.33318964405	273.433186828912	0.0999971848627865	stim09_sf2_pattern1_cont1_shape2.png	2	1	1	2	1	3	0	0	0	0	0	0	0	0	0	0	0	0	1	8
160.99072265625	0.0999939591852126	329709	17	6	stim06_sf1_pattern2_cont2_shape1.png	0	17	0	273.83317439539	273.933168354576	0.0999939591852126	stim06_sf1_pattern2_cont2_shape1.png	1	2	2	1	1	2	0	0	0	0	0	0	0	0	0	0	0	0	1	8
161.49072265625	0.0999878010729844	330733	18	11	stim11_sf2_pattern1_cont2_shape2.png	0	18	0	274.33316325214	274.433151053213	0.0999878010729844	stim11_sf2_pattern1_cont2_shape2.png	2	1	2	2	1	4	0	0	0	0	0	0	0	0	0	0	0	0	1	8
161.99072265625	0.0999957186459142	331757	19	1	stim01_sf1_pattern1_cont1_shape2.png	0	19	0	274.83314536429	274.933141082936	0.0999957186459142	stim01_sf1_pattern1_cont1_shape2.png	1	1	1	2	1	1	0	0	0	0	0	0	0	0	0	0	0	0	1	8
162.49072265625	0.0999901470208897	332781	20	7	stim07_sf1_pattern2_cont2_shape2.png	0	20	0	275.333139792665	275.433129939686	0.0999901470208897	stim07_sf1_pattern2_cont2_shape2.png	1	2	2	2	1	2	0	0	0	0	0	0	0	0	0	0	0	0	1	8
162.990234375	0.0999992375673173	333804	21	15	stim15_sf2_pattern2_cont2_shape2.png	0	21	0	275.833115746703	275.933114984271	0.0999992375673173	stim15_sf2_pattern2_cont2_shape2.png	2	2	2	2	1	4	0	0	0	0	0	0	0	0	0	0	0	0	1	8
163.490234375	0.100021817311699	334828	22	8	stim08_sf2_pattern1_cont1_shape1.png	0	22	0	276.333099911558	276.43312172887	0.100021817311699	stim08_sf2_pattern1_cont1_shape1.png	2	1	1	1	1	3	0	0	0	0	0	0	0	0	0	0	0	0	1	8
163.990234375	0.100082518702948	335852	23	4	stim04_sf1_pattern2_cont1_shape1.png	0	23	0	276.833092287228	276.933174805931	0.100082518702948	stim04_sf1_pattern2_cont1_shape1.png	1	2	1	1	1	1	0	0	0	0	0	0	0	0	0	0	0	0	1	8
164.490234375	0.100001876758142	336876	24	3	stim03_sf1_pattern1_cont2_shape2.png	0	24	0	277.333073226405	277.433075103163	0.100001876758142	stim03_sf1_pattern1_cont2_shape2.png	1	1	2	2	1	2	0	0	0	0	0	0	0	0	0	0	0	0	1	8
164.990234375	0.100010967304115	337900	25	0	stim00_sf1_pattern1_cont1_shape1.png	0	25	0	277.83304800747	277.933058974774	0.100010967304115	stim00_sf1_pattern1_cont1_shape1.png	1	1	1	1	1	1	0	0	0	0	0	0	0	0	0	0	0	0	1	8
165.490234375	0.100022990285197	338924	26	14	stim14_sf2_pattern2_cont2_shape1.png	0	26	0	278.333026600699	278.433049590984	0.100022990285197	stim14_sf2_pattern2_cont2_shape1.png	2	2	2	1	1	4	0	0	0	0	0	0	0	0	0	0	0	0	1	8
165.990234375	0.100012140278523	339948	27	13	stim13_sf2_pattern2_cont1_shape2.png	0	27	0	278.833013404744	278.933025545022	0.100012140278523	stim13_sf2_pattern2_cont1_shape2.png	2	2	1	2	1	3	0	0	0	0	0	0	0	0	0	0	0	0	1	8
166.490234375	0.100049382194811	340972	28	5	stim05_sf1_pattern2_cont1_shape2.png	0	28	0	279.33297469661	279.433024078805	0.100049382194811	stim05_sf1_pattern2_cont1_shape2.png	1	2	1	2	1	1	0	0	0	0	0	0	0	0	0	0	0	0	1	8
166.990234375	0.100041464621881	341996	29	12	stim12_sf2_pattern2_cont1_shape1.png	0	29	0	279.832957102004	279.932998566626	0.100041464621881	stim12_sf2_pattern2_cont1_shape1.png	2	2	1	1	1	3	0	0	0	0	0	0	0	0	0	0	0	0	1	8
167.490234375	0.100011847034693	343020	30	10	stim10_sf2_pattern1_cont2_shape1.png	0	30	0	280.332967365524	280.432979212559	0.100011847034693	stim10_sf2_pattern1_cont2_shape1.png	2	1	2	1	1	4	0	0	0	0	0	0	0	0	0	0	0	0	1	8
167.990234375	0.100007741626541	344044	31	2	stim02_sf1_pattern1_cont2_shape1.png	0	31	0	280.832943906049	280.932951647676	0.100007741626541	stim02_sf1_pattern1_cont2_shape1.png	1	1	2	1	1	2	0	0	0	0	0	0	0	0	0	0	0	0	1	8
168.490234375	0.100000410540815	345068	32	5	stim05_sf1_pattern2_cont1_shape2.png	0	32	1	281.332938920911	281.432939331452	0.100000410540815	stim05_sf1_pattern2_cont1_shape2.png	1	2	1	2	1	1	0	0	0	0	0	0	0	0	0	0	0	0	1	8
168.990234375	0.0999848686383302	346092	33	5	stim05_sf1_pattern2_cont1_shape2.png	0	33	1	281.832940973615	281.932925842254	0.0999848686383302	stim05_sf1_pattern2_cont1_shape2.png	1	2	1	2	1	1	0	0	0	0	0	0	0	0	0	0	0	0	1	8
169.490234375	0.10000803487037	347116	34	10	stim10_sf2_pattern1_cont2_shape1.png	0	34	2	282.332921033061	282.432929067932	0.10000803487037	stim10_sf2_pattern1_cont2_shape1.png	2	1	2	1	1	4	0	0	0	0	0	0	0	0	0	0	0	0	1	8
169.990234375	0.0999807632306329	348140	35	9	stim09_sf2_pattern1_cont1_shape2.png	0	35	2	282.83291839387	282.932899157101	0.0999807632306329	stim09_sf2_pattern1_cont1_shape2.png	2	1	1	2	1	3	0	0	0	0	0	0	0	0	0	0	0	0	1	8
170.490234375	0.0999792970133058	349164	36	11	stim11_sf2_pattern1_cont2_shape2.png	0	36	0	283.332903438455	283.432882735468	0.0999792970133058	stim11_sf2_pattern1_cont2_shape2.png	2	1	2	2	1	4	0	0	0	0	0	0	0	0	0	0	0	0	1	8
170.990234375	0.0999801767438839	350188	37	1	stim01_sf1_pattern1_cont1_shape2.png	0	37	0	283.832883791145	283.932863967889	0.0999801767438839	stim01_sf1_pattern1_cont1_shape2.png	1	1	1	2	1	1	0	0	0	0	0	0	0	0	0	0	0	0	1	8
171.490234375	0.100001876758142	351212	38	10	stim10_sf2_pattern1_cont2_shape1.png	0	38	0	284.332864143835	284.432866020593	0.100001876758142	stim10_sf2_pattern1_cont2_shape1.png	2	1	2	1	1	4	0	0	0	0	0	0	0	0	0	0	0	0	1	8
171.990234375	0.0999939591852126	352236	39	5	stim05_sf1_pattern2_cont1_shape2.png	0	39	0	284.832879685737	284.932873644922	0.0999939591852126	stim05_sf1_pattern2_cont1_shape2.png	1	2	1	2	1	1	0	0	0	0	0	0	0	0	0	0	0	0	1	8
172.490234375	0.10000070378419	353260	40	9	stim09_sf2_pattern1_cont1_shape2.png	0	40	0	285.332857399236	285.43285810302	0.10000070378419	stim09_sf2_pattern1_cont1_shape2.png	2	1	1	2	1	3	0	0	0	0	0	0	0	0	0	0	0	0	1	8
172.990234375	0.0999722591709542	354284	41	6	stim06_sf1_pattern2_cont2_shape1.png	0	41	0	285.832836285708	285.932808544879	0.0999722591709542	stim06_sf1_pattern2_cont2_shape1.png	1	2	2	1	1	2	0	0	0	0	0	0	0	0	0	0	0	0	1	8
173.490234375	0.0999963051326631	355308	42	12	stim12_sf2_pattern2_cont1_shape1.png	0	42	0	286.332826315431	286.432822620564	0.0999963051326631	stim12_sf2_pattern2_cont1_shape1.png	2	2	1	1	1	3	0	0	0	0	0	0	0	0	0	0	0	0	1	8
173.990234375	0.100012140278523	356332	43	14	stim14_sf2_pattern2_cont2_shape1.png	0	43	0	286.832780862699	286.932793002977	0.100012140278523	stim14_sf2_pattern2_cont2_shape1.png	2	2	2	1	1	4	0	0	0	0	0	0	0	0	0	0	0	0	1	8
174.490234375	0.100009794330617	357356	44	2	stim02_sf1_pattern1_cont2_shape1.png	0	44	0	287.33278438162	287.432794175951	0.100009794330617	stim02_sf1_pattern1_cont2_shape1.png	1	1	2	1	1	2	0	0	0	0	0	0	0	0	0	0	0	0	1	8
174.990234375	0.100000117296986	358380	45	4	stim04_sf1_pattern2_cont1_shape1.png	0	45	0	287.832784088377	287.932784205674	0.100000117296986	stim04_sf1_pattern2_cont1_shape1.png	1	2	1	1	1	1	0	0	0	0	0	0	0	0	0	0	0	0	1	8
175.490234375	0.0999942524285871	359404	46	3	stim03_sf1_pattern1_cont2_shape2.png	0	46	0	288.332772065396	288.432766317824	0.0999942524285871	stim03_sf1_pattern1_cont2_shape2.png	1	1	2	2	1	2	0	0	0	0	0	0	0	0	0	0	0	0	1	8
175.990234375	0.0999945456719615	360428	47	8	stim08_sf2_pattern1_cont1_shape1.png	0	47	0	288.832758576198	288.93275312187	0.0999945456719615	stim08_sf2_pattern1_cont1_shape1.png	2	1	1	1	1	3	0	0	0	0	0	0	0	0	0	0	0	0	1	8
176.490234375	0.0999971848627865	361452	48	15	stim15_sf2_pattern2_cont2_shape2.png	0	48	0	289.332741861322	289.432739046184	0.0999971848627865	stim15_sf2_pattern2_cont2_shape2.png	2	2	2	2	1	4	0	0	0	0	0	0	0	0	0	0	0	0	1	8
176.990234375	0.0999998240540663	362476	49	7	stim07_sf1_pattern2_cont2_shape2.png	0	49	0	289.832725146446	289.9327249705	0.0999998240540663	stim07_sf1_pattern2_cont2_shape2.png	1	2	2	2	1	2	0	0	0	0	0	0	0	0	0	0	0	0	1	8
177.490234375	0.0999986510801136	363500	50	0	stim00_sf1_pattern1_cont1_shape1.png	0	50	0	290.332701686971	290.432700338051	0.0999986510801136	stim00_sf1_pattern1_cont1_shape1.png	1	1	1	1	1	1	0	0	0	0	0	0	0	0	0	0	0	0	1	8
177.990234375	0.0999936659418381	364524	51	13	stim13_sf2_pattern2_cont1_shape2.png	0	51	0	290.832705205892	290.932698871834	0.0999936659418381	stim13_sf2_pattern2_cont1_shape2.png	2	2	1	2	1	3	0	0	0	0	0	0	0	0	0	0	0	0	1	8
178.490234375	0.0999957186459142	365548	52	10	stim10_sf2_pattern1_cont2_shape1.png	0	52	0	291.332688491016	291.432684209662	0.0999957186459142	stim10_sf2_pattern1_cont2_shape1.png	2	1	2	1	1	4	0	0	0	0	0	0	0	0	0	0	0	0	1	8
178.990234375	0.0999968916198668	366572	53	7	stim07_sf1_pattern2_cont2_shape2.png	0	53	0	291.832674122088	291.932671013707	0.0999968916198668	stim07_sf1_pattern2_cont2_shape2.png	1	2	2	2	1	2	0	0	0	0	0	0	0	0	0	0	0	0	1	8
179.490234375	0.100003929462218	367596	54	2	stim02_sf1_pattern1_cont2_shape1.png	0	54	0	292.332654474777	292.43265840424	0.100003929462218	stim02_sf1_pattern1_cont2_shape1.png	1	1	2	1	1	2	0	0	0	0	0	0	0	0	0	0	0	0	1	8
179.98974609375	0.099994838915336	368619	55	4	stim04_sf1_pattern2_cont1_shape1.png	0	55	0	292.832644797744	292.93263963666	0.099994838915336	stim04_sf1_pattern2_cont1_shape1.png	1	2	1	1	1	1	0	0	0	0	0	0	0	0	0	0	0	0	1	8
180.48974609375	0.100041757865256	369643	56	11	stim11_sf2_pattern1_cont2_shape2.png	0	56	0	293.332578817971	293.432620575836	0.100041757865256	stim11_sf2_pattern1_cont2_shape2.png	2	1	2	2	1	4	0	0	0	0	0	0	0	0	0	0	0	0	1	8
180.98974609375	0.100002756488266	370667	57	6	stim06_sf1_pattern2_cont2_shape1.png	0	57	0	293.832615180157	293.932617936645	0.100002756488266	stim06_sf1_pattern2_cont2_shape1.png	1	2	2	1	1	2	0	0	0	0	0	0	0	0	0	0	0	0	1	8
181.48974609375	0.100011553791319	371691	58	12	stim12_sf2_pattern2_cont1_shape1.png	0	58	0	294.332613127453	294.432624681244	0.100011553791319	stim12_sf2_pattern2_cont1_shape1.png	2	2	1	1	1	3	0	0	0	0	0	0	0	0	0	0	0	0	1	8
181.98974609375	0.0999707929536271	372715	59	0	stim00_sf1_pattern1_cont1_shape1.png	0	59	0	294.832590254465	294.932561047418	0.0999707929536271	stim00_sf1_pattern1_cont1_shape1.png	1	1	1	1	1	1	0	0	0	0	0	0	0	0	0	0	0	0	1	8
182.48974609375	0.10001331325202	373739	60	15	stim15_sf2_pattern2_cont2_shape2.png	0	60	0	295.332574712563	295.432588025815	0.10001331325202	stim15_sf2_pattern2_cont2_shape2.png	2	2	2	2	1	4	0	0	0	0	0	0	0	0	0	0	0	0	1	8
182.98974609375	0.100001583514768	374763	61	3	stim03_sf1_pattern1_cont2_shape2.png	0	61	0	295.832538350377	295.932539933891	0.100001583514768	stim03_sf1_pattern1_cont2_shape2.png	1	1	2	2	1	2	0	0	0	0	0	0	0	0	0	0	0	0	1	8
183.48974609375	0.0999775375530589	375787	62	8	stim08_sf2_pattern1_cont1_shape1.png	0	62	0	296.332545388219	296.432522925772	0.0999775375530589	stim08_sf2_pattern1_cont1_shape1.png	2	1	1	1	1	3	0	0	0	0	0	0	0	0	0	0	0	0	1	8
183.98974609375	0.099992199724511	376811	63	9	stim09_sf2_pattern1_cont1_shape2.png	0	63	0	296.832519289553	296.932511489278	0.099992199724511	stim09_sf2_pattern1_cont1_shape2.png	2	1	1	2	1	3	0	0	0	0	0	0	0	0	0	0	0	0	1	8
184.48974609375	0.0999769510658552	377835	64	14	stim14_sf2_pattern2_cont2_shape1.png	0	64	0	297.332499349	297.432476300065	0.0999769510658552	stim14_sf2_pattern2_cont2_shape1.png	2	2	2	1	1	4	0	0	0	0	0	0	0	0	0	0	0	0	1	8
184.98974609375	0.100015952442845	378859	65	1	stim01_sf1_pattern1_cont1_shape2.png	0	65	0	297.832489085479	297.932505037922	0.100015952442845	stim01_sf1_pattern1_cont1_shape2.png	1	1	1	2	1	1	0	0	0	0	0	0	0	0	0	0	0	0	1	8
185.48974609375	0.10000070378419	379883	66	5	stim05_sf1_pattern2_cont1_shape2.png	0	66	0	298.332477355742	298.432478059526	0.10000070378419	stim05_sf1_pattern2_cont1_shape2.png	1	2	1	2	1	1	0	0	0	0	0	0	0	0	0	0	0	0	1	8
185.98974609375	0.0999734321444521	380907	67	7	stim07_sf1_pattern2_cont2_shape2.png	0	67	1	298.832475889525	298.932449321669	0.0999734321444521	stim07_sf1_pattern2_cont2_shape2.png	1	2	2	2	1	2	0	0	0	0	0	0	0	0	0	0	0	0	1	8
186.48974609375	0.0999986510801136	381931	68	7	stim07_sf1_pattern2_cont2_shape2.png	0	68	1	299.332453016536	299.432451667617	0.0999986510801136	stim07_sf1_pattern2_cont2_shape2.png	1	2	2	2	1	2	0	0	0	0	0	0	0	0	0	0	0	0	1	8
186.98974609375	0.100019471364249	382955	69	13	stim13_sf2_pattern2_cont1_shape2.png	0	69	2	299.832434248956	299.932453720321	0.100019471364249	stim13_sf2_pattern2_cont1_shape2.png	2	2	1	2	1	3	0	0	0	0	0	0	0	0	0	0	0	0	1	8
187.48974609375	0.0999968916194121	383979	70	10	stim10_sf2_pattern1_cont2_shape1.png	0	70	2	300.332448324642	300.432445216261	0.0999968916194121	stim10_sf2_pattern1_cont2_shape1.png	2	1	2	1	1	4	0	0	0	0	0	0	0	0	0	0	0	0	1	8
187.98974609375	0.0999977713495355	385003	71	13	stim13_sf2_pattern2_cont1_shape2.png	0	71	0	300.832432489496	300.932430260846	0.0999977713495355	stim13_sf2_pattern2_cont1_shape2.png	2	2	1	2	1	3	0	0	0	0	0	0	0	0	0	0	0	0	1	8
188.48974609375	0.0999954254025397	386027	72	15	stim15_sf2_pattern2_cont2_shape2.png	0	72	0	301.332414015159	301.432409440562	0.0999954254025397	stim15_sf2_pattern2_cont2_shape2.png	2	2	2	2	1	4	0	0	0	0	0	0	0	0	0	0	0	0	1	8
188.98974609375	0.0999728456581579	387051	73	5	stim05_sf1_pattern2_cont1_shape2.png	0	73	0	301.832399646231	301.932372491889	0.0999728456581579	stim05_sf1_pattern2_cont1_shape2.png	1	2	1	2	1	1	0	0	0	0	0	0	0	0	0	0	0	0	1	8
189.48974609375	0.0999995308106918	388075	74	11	stim11_sf2_pattern1_cont2_shape2.png	0	74	0	302.332364750262	302.432364281073	0.0999995308106918	stim11_sf2_pattern1_cont2_shape2.png	2	1	2	2	1	4	0	0	0	0	0	0	0	0	0	0	0	0	1	8
189.98974609375	0.099999530810237	389099	75	4	stim04_sf1_pattern2_cont1_shape1.png	0	75	0	302.832372667835	302.932372198645	0.099999530810237	stim04_sf1_pattern2_cont1_shape1.png	1	2	1	1	1	1	0	0	0	0	0	0	0	0	0	0	0	0	1	8
190.48974609375	0.099994838915336	390123	76	9	stim09_sf2_pattern1_cont1_shape2.png	0	76	0	303.332358005663	303.432352844578	0.099994838915336	stim09_sf2_pattern1_cont1_shape2.png	2	1	1	2	1	3	0	0	0	0	0	0	0	0	0	0	0	0	1	8
190.98974609375	0.0999772443092297	391147	77	3	stim03_sf1_pattern1_cont2_shape2.png	0	77	0	303.832323402938	303.932300647247	0.0999772443092297	stim03_sf1_pattern1_cont2_shape2.png	1	1	2	2	1	2	0	0	0	0	0	0	0	0	0	0	0	0	1	8
191.48974609375	0.0999933726984636	392171	78	1	stim01_sf1_pattern1_cont1_shape2.png	0	78	0	304.332332493484	304.432325866183	0.0999933726984636	stim01_sf1_pattern1_cont1_shape2.png	1	1	1	2	1	1	0	0	0	0	0	0	0	0	0	0	0	0	1	8
191.98974609375	0.100004515948967	393195	79	10	stim10_sf2_pattern1_cont2_shape1.png	0	79	0	304.832310500226	304.932315016175	0.100004515948967	stim10_sf2_pattern1_cont2_shape1.png	2	1	2	1	1	4	0	0	0	0	0	0	0	0	0	0	0	0	1	8
192.48974609375	0.100014486225973	394219	80	6	stim06_sf1_pattern2_cont2_shape1.png	0	80	0	305.332304928601	305.432319414827	0.100014486225973	stim06_sf1_pattern2_cont2_shape1.png	1	2	2	1	1	2	0	0	0	0	0	0	0	0	0	0	0	0	1	8
192.98974609375	0.100004515948967	395243	81	12	stim12_sf2_pattern2_cont1_shape1.png	0	81	0	305.832282935343	305.932287451292	0.100004515948967	stim12_sf2_pattern2_cont1_shape1.png	2	2	1	1	1	3	0	0	0	0	0	0	0	0	0	0	0	0	1	8
193.48974609375	0.0999898537770605	396267	82	0	stim00_sf1_pattern1_cont1_shape1.png	0	82	0	306.332277950205	306.432267803982	0.0999898537770605	stim00_sf1_pattern1_cont1_shape1.png	1	1	1	1	1	1	0	0	0	0	0	0	0	0	0	0	0	0	1	8
193.98974609375	0.0999960118892886	397291	83	13	stim13_sf2_pattern2_cont1_shape2.png	0	83	0	306.832263581276	306.932259593166	0.0999960118892886	stim13_sf2_pattern2_cont1_shape2.png	2	2	1	2	1	3	0	0	0	0	0	0	0	0	0	0	0	0	1	8
194.48974609375	0.0999992375668626	398315	84	8	stim08_sf2_pattern1_cont1_shape1.png	0	84	0	307.33224598667	307.432245224237	0.0999992375668626	stim08_sf2_pattern1_cont1_shape1.png	2	1	1	1	1	3	0	0	0	0	0	0	0	0	0	0	0	0	1	8
194.98974609375	0.100006861896418	399339	85	14	stim14_sf2_pattern2_cont2_shape1.png	0	85	0	307.832227805577	307.932234667473	0.100006861896418	stim14_sf2_pattern2_cont2_shape1.png	2	2	2	1	1	4	0	0	0	0	0	0	0	0	0	0	0	0	1	8
195.48974609375	0.100011553791319	400363	86	2	stim02_sf1_pattern1_cont2_shape1.png	0	86	0	308.332197015016	308.432208568808	0.100011553791319	stim02_sf1_pattern1_cont2_shape1.png	1	1	2	1	1	2	0	0	0	0	0	0	0	0	0	0	0	0	1	8
195.98974609375	0.100000997027564	401387	87	7	stim07_sf1_pattern2_cont2_shape2.png	0	87	0	308.832201120425	308.932202117452	0.100000997027564	stim07_sf1_pattern2_cont2_shape2.png	1	2	2	2	1	2	0	0	0	0	0	0	0	0	0	0	0	0	1	8
196.48974609375	0.0999737253882813	402411	88	11	stim11_sf2_pattern1_cont2_shape2.png	0	88	0	309.332219301517	309.432193026906	0.0999737253882813	stim11_sf2_pattern1_cont2_shape2.png	2	1	2	2	1	4	0	0	0	0	0	0	0	0	0	0	0	0	1	8
196.9892578125	0.0999790037699313	403434	89	7	stim07_sf1_pattern2_cont2_shape2.png	0	89	0	309.832173555541	309.932152559311	0.0999790037699313	stim07_sf1_pattern2_cont2_shape2.png	1	2	2	2	1	2	0	0	0	0	0	0	0	0	0	0	0	0	1	8
197.4892578125	0.0999954254025397	404458	90	10	stim10_sf2_pattern1_cont2_shape1.png	0	90	0	310.332153028501	310.432148453903	0.0999954254025397	stim10_sf2_pattern1_cont2_shape1.png	2	1	2	1	1	4	0	0	0	0	0	0	0	0	0	0	0	0	1	8
197.9892578125	0.09996404835465	405482	91	6	stim06_sf1_pattern2_cont2_shape1.png	0	91	0	310.832150096066	310.932114144421	0.09996404835465	stim06_sf1_pattern2_cont2_shape1.png	1	2	2	1	1	2	0	0	0	0	0	0	0	0	0	0	0	0	1	8
198.4892578125	0.0999798835005095	406506	92	5	stim05_sf1_pattern2_cont1_shape2.png	0	92	0	311.332135433895	311.432115317395	0.0999798835005095	stim05_sf1_pattern2_cont1_shape2.png	1	2	1	2	1	1	0	0	0	0	0	0	0	0	0	0	0	0	1	8
198.9892578125	0.100016245686675	407530	93	4	stim04_sf1_pattern2_cont1_shape1.png	0	93	0	311.83210347036	311.932119716047	0.100016245686675	stim04_sf1_pattern2_cont1_shape1.png	1	2	1	1	1	1	0	0	0	0	0	0	0	0	0	0	0	0	1	8
199.4892578125	0.100017711903547	408554	94	9	stim09_sf2_pattern1_cont1_shape2.png	0	94	0	312.332088221701	312.432105933605	0.100017711903547	stim09_sf2_pattern1_cont1_shape2.png	2	1	1	2	1	3	0	0	0	0	0	0	0	0	0	0	0	0	1	8
199.9892578125	0.100001876757688	409578	95	8	stim08_sf2_pattern1_cont1_shape1.png	0	95	0	312.832071800069	312.932073676827	0.100001876757688	stim08_sf2_pattern1_cont1_shape1.png	2	1	1	1	1	3	0	0	0	0	0	0	0	0	0	0	0	0	1	8
200.4892578125	0.0999781240393531	410602	96	12	stim12_sf2_pattern2_cont1_shape1.png	0	96	0	313.332057431141	313.43203555518	0.0999781240393531	stim12_sf2_pattern2_cont1_shape1.png	2	2	1	1	1	3	0	0	0	0	0	0	0	0	0	0	0	0	1	8
200.9892578125	0.100001290270939	411626	97	3	stim03_sf1_pattern1_cont2_shape2.png	0	97	0	313.832055378437	313.932056668707	0.100001290270939	stim03_sf1_pattern1_cont2_shape2.png	1	1	2	2	1	2	0	0	0	0	0	0	0	0	0	0	0	0	1	8
201.4892578125	0.100011260547944	412650	98	13	stim13_sf2_pattern2_cont1_shape2.png	0	98	0	314.332044528429	314.432055788977	0.100011260547944	stim13_sf2_pattern2_cont1_shape2.png	2	2	1	2	1	3	0	0	0	0	0	0	0	0	0	0	0	0	1	8
201.9892578125	0.100004515948967	413674	99	14	stim14_sf2_pattern2_cont2_shape1.png	0	99	0	314.832039250047	314.932043765996	0.100004515948967	stim14_sf2_pattern2_cont2_shape1.png	2	2	2	1	1	4	0	0	0	0	0	0	0	0	0	0	0	0	1	8
202.4892578125	0.100005102435716	414698	100	1	stim01_sf1_pattern1_cont1_shape2.png	0	100	0	315.332030159501	315.432035261937	0.100005102435716	stim01_sf1_pattern1_cont1_shape2.png	1	1	1	2	1	1	0	0	0	0	0	0	0	0	0	0	0	0	1	8
202.9892578125	0.100004515948967	415722	101	15	stim15_sf2_pattern2_cont2_shape2.png	0	101	0	315.832019602737	315.932024118686	0.100004515948967	stim15_sf2_pattern2_cont2_shape2.png	2	2	2	2	1	4	0	0	0	0	0	0	0	0	0	0	0	0	1	8
203.4892578125	0.0999781240393531	416746	102	0	stim00_sf1_pattern1_cont1_shape1.png	0	102	0	316.332025174363	316.432003298402	0.0999781240393531	stim00_sf1_pattern1_cont1_shape1.png	1	1	1	1	1	1	0	0	0	0	0	0	0	0	0	0	0	0	1	8
203.9892578125	0.0999977713495355	417770	103	2	stim02_sf1_pattern1_cont2_shape1.png	0	103	0	316.83198822569	316.931985997039	0.0999977713495355	stim02_sf1_pattern1_cont2_shape1.png	1	1	2	1	1	2	0	0	0	0	0	0	0	0	0	0	0	0	1	8
204.4892578125	0.0999854551255339	418794	104	13	stim13_sf2_pattern2_cont1_shape2.png	0	104	0	317.331986172986	317.431971628111	0.0999854551255339	stim13_sf2_pattern2_cont1_shape2.png	2	2	1	2	1	3	0	0	0	0	0	0	0	0	0	0	0	0	1	8
204.9892578125	0.0999748983617792	419818	105	1	stim01_sf1_pattern1_cont1_shape2.png	0	105	0	317.831958608102	317.931933506464	0.0999748983617792	stim01_sf1_pattern1_cont1_shape2.png	1	1	1	2	1	1	0	0	0	0	0	0	0	0	0	0	0	0	1	8
205.4892578125	0.100000117297441	420842	106	3	stim03_sf1_pattern1_cont2_shape2.png	0	106	0	318.331930749976	318.431930867273	0.100000117297441	stim03_sf1_pattern1_cont2_shape2.png	1	1	2	2	1	2	0	0	0	0	0	0	0	0	0	0	0	0	1	8
205.9892578125	0.100002463244891	421866	107	5	stim05_sf1_pattern2_cont1_shape2.png	0	107	0	318.831928990515	318.93193145376	0.100002463244891	stim05_sf1_pattern2_cont1_shape2.png	1	2	1	2	1	1	0	0	0	0	0	0	0	0	0	0	0	0	1	8
206.4892578125	0.0999930794550892	422890	108	2	stim02_sf1_pattern1_cont2_shape1.png	0	108	0	319.331925471594	319.431918551049	0.0999930794550892	stim02_sf1_pattern1_cont2_shape1.png	1	1	2	1	1	2	0	0	0	0	0	0	0	0	0	0	0	0	1	8
206.9892578125	0.100001583514313	423914	109	9	stim09_sf2_pattern1_cont1_shape2.png	0	109	0	319.831902305363	319.931903888877	0.100001583514313	stim09_sf2_pattern1_cont1_shape2.png	2	1	1	2	1	3	0	0	0	0	0	0	0	0	0	0	0	0	1	8
207.4892578125	0.099992199724511	424938	110	12	stim12_sf2_pattern2_cont1_shape1.png	0	110	0	320.331880312105	320.431872511829	0.099992199724511	stim12_sf2_pattern2_cont1_shape1.png	2	2	1	1	1	3	0	0	0	0	0	0	0	0	0	0	0	0	1	8
207.9892578125	0.0999957186459142	425962	111	8	stim08_sf2_pattern1_cont1_shape1.png	0	111	1	320.831881191835	320.931876910481	0.0999957186459142	stim08_sf2_pattern1_cont1_shape1.png	2	1	1	1	1	3	0	0	0	0	0	0	0	0	0	0	0	0	1	8
208.4892578125	0.0999942524285871	426986	112	8	stim08_sf2_pattern1_cont1_shape1.png	0	112	1	321.331870341828	321.431864594257	0.0999942524285871	stim08_sf2_pattern1_cont1_shape1.png	2	1	1	1	1	3	0	0	0	0	0	0	0	0	0	0	0	0	1	8
208.9892578125	0.100000410540815	428010	113	13	stim13_sf2_pattern2_cont1_shape2.png	0	113	2	321.831839551267	321.931839961808	0.100000410540815	stim13_sf2_pattern2_cont1_shape2.png	2	2	1	2	1	3	0	0	0	0	0	0	0	0	0	0	0	0	1	8
209.4892578125	0.0999904402642642	429034	114	5	stim05_sf1_pattern2_cont1_shape2.png	0	114	2	322.331841603971	322.431832044235	0.0999904402642642	stim05_sf1_pattern2_cont1_shape2.png	1	2	1	2	1	1	0	0	0	0	0	0	0	0	0	0	0	0	1	8
209.9892578125	0.100000117297441	430058	115	10	stim10_sf2_pattern1_cont2_shape1.png	0	115	0	322.831821663417	322.931821780715	0.100000117297441	stim10_sf2_pattern1_cont2_shape1.png	2	1	2	1	1	4	0	0	0	0	0	0	0	0	0	0	0	0	1	8
210.4892578125	0.0999968916194121	431082	116	8	stim08_sf2_pattern1_cont1_shape1.png	0	116	0	323.331812572871	323.43180946449	0.0999968916194121	stim08_sf2_pattern1_cont1_shape1.png	2	1	1	1	1	3	0	0	0	0	0	0	0	0	0	0	0	0	1	8
210.9892578125	0.100002170001517	432106	117	7	stim07_sf1_pattern2_cont2_shape2.png	0	117	0	323.831794391778	323.931796561779	0.100002170001517	stim07_sf1_pattern2_cont2_shape2.png	1	2	2	2	1	2	0	0	0	0	0	0	0	0	0	0	0	0	1	8
211.4892578125	0.0999819362041308	433130	118	14	stim14_sf2_pattern2_cont2_shape1.png	0	118	0	324.331794978265	324.431776914469	0.0999819362041308	stim14_sf2_pattern2_cont2_shape1.png	2	2	2	1	1	4	0	0	0	0	0	0	0	0	0	0	0	0	1	8
211.9892578125	0.100004809192342	434154	119	0	stim00_sf1_pattern1_cont1_shape1.png	0	119	0	324.831764187704	324.931768996896	0.100004809192342	stim00_sf1_pattern1_cont1_shape1.png	1	1	1	1	1	1	0	0	0	0	0	0	0	0	0	0	0	0	1	8
212.4892578125	0.100003929462218	435178	120	4	stim04_sf1_pattern2_cont1_shape1.png	0	120	0	325.331755390401	325.431759319863	0.100003929462218	stim04_sf1_pattern2_cont1_shape1.png	1	2	1	1	1	1	0	0	0	0	0	0	0	0	0	0	0	0	1	8
212.9892578125	0.100018298390296	436202	121	15	stim15_sf2_pattern2_cont2_shape2.png	0	121	0	325.831728998492	325.931747296882	0.100018298390296	stim15_sf2_pattern2_cont2_shape2.png	2	2	2	2	1	4	0	0	0	0	0	0	0	0	0	0	0	0	1	8
213.4892578125	0.099992199724511	437226	122	11	stim11_sf2_pattern1_cont2_shape2.png	0	122	0	326.331719907945	326.43171210767	0.099992199724511	stim11_sf2_pattern1_cont2_shape2.png	2	1	2	2	1	4	0	0	0	0	0	0	0	0	0	0	0	0	1	8
213.9892578125	0.100035306509653	438250	123	6	stim06_sf1_pattern2_cont2_shape1.png	0	123	0	326.83168618495	326.931721491459	0.100035306509653	stim06_sf1_pattern2_cont2_shape1.png	1	2	2	1	1	2	0	0	0	0	0	0	0	0	0	0	0	0	1	8
214.48876953125	0.0999842821515813	439273	124	5	stim05_sf1_pattern2_cont1_shape2.png	0	124	0	327.331703486313	327.431687768464	0.0999842821515813	stim05_sf1_pattern2_cont1_shape2.png	1	2	1	2	1	1	0	0	0	0	0	0	0	0	0	0	0	0	1	8
214.98876953125	0.0999998240540663	440297	125	10	stim10_sf2_pattern1_cont2_shape1.png	0	125	0	327.831665071422	327.931664895476	0.0999998240540663	stim10_sf2_pattern1_cont2_shape1.png	2	1	2	1	1	4	0	0	0	0	0	0	0	0	0	0	0	0	1	8
215.48876953125	0.100000410540815	441321	126	2	stim02_sf1_pattern1_cont2_shape1.png	0	126	0	328.331660966014	328.431661376555	0.100000410540815	stim02_sf1_pattern1_cont2_shape1.png	1	1	2	1	1	2	0	0	0	0	0	0	0	0	0	0	0	0	1	8
215.98876953125	0.0999971848632413	442345	127	6	stim06_sf1_pattern2_cont2_shape1.png	0	127	0	328.831648356546	328.93164554141	0.0999971848632413	stim06_sf1_pattern2_cont2_shape1.png	1	2	2	1	1	2	0	0	0	0	0	0	0	0	0	0	0	0	1	8
216.48876953125	0.0999910267505584	443369	128	8	stim08_sf2_pattern1_cont1_shape1.png	0	128	0	329.331633987618	329.431625014369	0.0999910267505584	stim08_sf2_pattern1_cont1_shape1.png	2	1	1	1	1	3	0	0	0	0	0	0	0	0	0	0	0	0	1	8
216.98876953125	0.0999801767434292	444393	129	7	stim07_sf1_pattern2_cont2_shape2.png	0	129	0	329.831640438974	329.931620615717	0.0999801767434292	stim07_sf1_pattern2_cont2_shape2.png	1	2	2	2	1	2	0	0	0	0	0	0	0	0	0	0	0	0	1	8
217.48876953125	0.0999992375673173	445417	130	0	stim00_sf1_pattern1_cont1_shape1.png	0	130	0	330.331609648413	330.43160888598	0.0999992375673173	stim00_sf1_pattern1_cont1_shape1.png	1	1	1	1	1	1	0	0	0	0	0	0	0	0	0	0	0	0	1	8
217.98876953125	0.100004222705593	446441	131	4	stim04_sf1_pattern2_cont1_shape1.png	0	131	0	330.831610234899	330.931614457605	0.100004222705593	stim04_sf1_pattern2_cont1_shape1.png	1	2	1	1	1	1	0	0	0	0	0	0	0	0	0	0	0	0	1	8
218.48876953125	0.0999916132377621	447465	132	13	stim13_sf2_pattern2_cont1_shape2.png	0	132	0	331.33160085111	331.431592464347	0.0999916132377621	stim13_sf2_pattern2_cont1_shape2.png	2	2	1	2	1	3	0	0	0	0	0	0	0	0	0	0	0	0	1	8
218.98876953125	0.100004222705138	448489	133	11	stim11_sf2_pattern1_cont2_shape2.png	0	133	0	331.831576218661	331.931580441366	0.100004222705138	stim11_sf2_pattern1_cont2_shape2.png	2	1	2	2	1	4	0	0	0	0	0	0	0	0	0	0	0	0	1	8
219.48876953125	0.100003636218389	449513	134	12	stim12_sf2_pattern2_cont1_shape1.png	0	134	0	332.33157269974	332.431576335958	0.100003636218389	stim12_sf2_pattern2_cont1_shape1.png	2	2	1	1	1	3	0	0	0	0	0	0	0	0	0	0	0	0	1	8
219.98876953125	0.0999787105265568	450537	135	9	stim09_sf2_pattern1_cont1_shape2.png	0	135	0	332.831558037568	332.931536748094	0.0999787105265568	stim09_sf2_pattern1_cont1_shape2.png	2	1	1	2	1	3	0	0	0	0	0	0	0	0	0	0	0	0	1	8
220.48876953125	0.0999995308106918	451561	136	3	stim03_sf1_pattern1_cont2_shape2.png	0	136	0	333.331541322692	333.431540853503	0.0999995308106918	stim03_sf1_pattern1_cont2_shape2.png	1	1	2	2	1	2	0	0	0	0	0	0	0	0	0	0	0	0	1	8
220.98876953125	0.0999989443239429	452585	137	15	stim15_sf2_pattern2_cont2_shape2.png	0	137	0	333.831524021329	333.931522965653	0.0999989443239429	stim15_sf2_pattern2_cont2_shape2.png	2	2	2	2	1	4	0	0	0	0	0	0	0	0	0	0	0	0	1	8
221.48876953125	0.0999989443239429	453609	138	1	stim01_sf1_pattern1_cont1_shape2.png	0	138	0	334.33151551727	334.431514461593	0.0999989443239429	stim01_sf1_pattern1_cont1_shape2.png	1	1	1	2	1	1	0	0	0	0	0	0	0	0	0	0	0	0	1	8
221.98876953125	0.0999977713495355	454633	139	14	stim14_sf2_pattern2_cont2_shape1.png	0	139	0	334.831503201046	334.931500972395	0.0999977713495355	stim14_sf2_pattern2_cont2_shape1.png	2	2	2	1	1	4	0	0	0	0	0	0	0	0	0	0	0	0	1	8
222.48876953125	0.10000568892292	455657	140	12	stim12_sf2_pattern2_cont1_shape1.png	0	140	0	335.331480914544	335.431486603467	0.10000568892292	stim12_sf2_pattern2_cont1_shape1.png	2	2	1	1	1	3	0	0	0	0	0	0	0	0	0	0	0	0	1	8
222.98876953125	0.100026215963226	456681	141	7	stim07_sf1_pattern2_cont2_shape2.png	0	141	0	335.831436341542	335.931462557505	0.100026215963226	stim07_sf1_pattern2_cont2_shape2.png	1	2	2	2	1	2	0	0	0	0	0	0	0	0	0	0	0	0	1	8
223.48876953125	0.10000070378419	457705	142	9	stim09_sf2_pattern1_cont1_shape2.png	0	142	0	336.33146097399	336.431461677775	0.10000070378419	stim09_sf2_pattern1_cont1_shape2.png	2	1	1	2	1	3	0	0	0	0	0	0	0	0	0	0	0	0	1	8
223.98876953125	0.100002463244891	458729	143	4	stim04_sf1_pattern2_cont1_shape1.png	0	143	0	336.831441913167	336.931444376412	0.100002463244891	stim04_sf1_pattern2_cont1_shape1.png	1	2	1	1	1	1	0	0	0	0	0	0	0	0	0	0	0	0	1	8
224.48876953125	0.0999998240540663	459753	144	10	stim10_sf2_pattern1_cont2_shape1.png	0	144	0	337.331433702351	337.431433526405	0.0999998240540663	stim10_sf2_pattern1_cont2_shape1.png	2	1	2	1	1	4	0	0	0	0	0	0	0	0	0	0	0	0	1	8
224.98876953125	0.0999963051326631	460777	145	0	stim00_sf1_pattern1_cont1_shape1.png	0	145	0	337.831404084764	337.931400389896	0.0999963051326631	stim00_sf1_pattern1_cont1_shape1.png	1	1	1	1	1	1	0	0	0	0	0	0	0	0	0	0	0	0	1	8
225.48876953125	0.0999951321587105	461801	146	1	stim01_sf1_pattern1_cont1_shape2.png	0	146	0	338.331409363146	338.431404495304	0.0999951321587105	stim01_sf1_pattern1_cont1_shape2.png	1	1	1	2	1	1	0	0	0	0	0	0	0	0	0	0	0	0	1	8
225.98876953125	0.0999813497173818	462825	147	14	stim14_sf2_pattern2_cont2_shape1.png	0	147	0	338.831393821244	338.931375170961	0.0999813497173818	stim14_sf2_pattern2_cont2_shape1.png	2	2	2	1	1	4	0	0	0	0	0	0	0	0	0	0	0	0	1	8
226.48876953125	0.0999992375668626	463849	148	8	stim08_sf2_pattern1_cont1_shape1.png	0	148	0	339.331378865828	339.431378103395	0.0999992375668626	stim08_sf2_pattern1_cont1_shape1.png	2	1	1	1	1	3	0	0	0	0	0	0	0	0	0	0	0	0	1	8
226.98876953125	0.10000070378419	464873	149	5	stim05_sf1_pattern2_cont1_shape2.png	0	149	0	339.831359805005	339.931360508789	0.10000070378419	stim05_sf1_pattern2_cont1_shape2.png	1	2	1	2	1	1	0	0	0	0	0	0	0	0	0	0	0	0	1	8
227.48876953125	0.0999919064811365	465897	150	6	stim06_sf1_pattern2_cont2_shape1.png	0	150	0	340.33135687257	340.431348779051	0.0999919064811365	stim06_sf1_pattern2_cont2_shape1.png	1	2	2	1	1	2	0	0	0	0	0	0	0	0	0	0	0	0	1	8
227.98876953125	0.0999449875312166	466921	151	2	stim02_sf1_pattern1_cont2_shape1.png	0	151	0	340.831340744181	340.931285731713	0.0999449875312166	stim02_sf1_pattern1_cont2_shape1.png	1	1	2	1	1	2	0	0	0	0	0	0	0	0	0	0	0	0	1	8
228.48876953125	0.0999907335071839	467945	152	3	stim03_sf1_pattern1_cont2_shape2.png	0	152	0	341.331325788766	341.431316522273	0.0999907335071839	stim03_sf1_pattern1_cont2_shape2.png	1	1	2	2	1	2	0	0	0	0	0	0	0	0	0	0	0	0	1	8
228.98876953125	0.0999646348413989	468969	153	15	stim15_sf2_pattern2_cont2_shape2.png	0	153	0	341.831284441442	341.931249076283	0.0999646348413989	stim15_sf2_pattern2_cont2_shape2.png	2	2	2	2	1	4	0	0	0	0	0	0	0	0	0	0	0	0	1	8
229.48876953125	0.100018298390751	469993	154	11	stim11_sf2_pattern1_cont2_shape2.png	0	154	0	342.331275057652	342.431293356042	0.100018298390751	stim11_sf2_pattern1_cont2_shape2.png	2	1	2	2	1	4	0	0	0	0	0	0	0	0	0	0	0	0	1	8
229.98876953125	0.100019471364249	471017	155	13	stim13_sf2_pattern2_cont1_shape2.png	0	155	0	342.831240454926	342.93125992629	0.100019471364249	stim13_sf2_pattern2_cont1_shape2.png	2	2	1	2	1	3	0	0	0	0	0	0	0	0	0	0	0	0	1	8
230.48876953125	0.0999995308106918	472041	156	15	stim15_sf2_pattern2_cont2_shape2.png	0	156	0	343.33125101169	343.4312505425	0.0999995308106918	stim15_sf2_pattern2_cont2_shape2.png	2	2	2	2	1	4	0	0	0	0	0	0	0	0	0	0	0	0	1	8
230.98876953125	0.0999939591852126	473065	157	5	stim05_sf1_pattern2_cont1_shape2.png	0	157	0	343.831245733308	343.931239692493	0.0999939591852126	stim05_sf1_pattern2_cont1_shape2.png	1	2	1	2	1	1	0	0	0	0	0	0	0	0	0	0	0	0	1	8
231.48828125	0.100000410540815	474088	158	4	stim04_sf1_pattern2_cont1_shape1.png	0	158	0	344.331228725189	344.43122913573	0.100000410540815	stim04_sf1_pattern2_cont1_shape1.png	1	2	1	1	1	1	0	0	0	0	0	0	0	0	0	0	0	0	1	8
231.98828125	0.0999828159347089	475112	159	14	stim14_sf2_pattern2_cont2_shape1.png	0	159	0	344.83121523599	344.931198051925	0.0999828159347089	stim14_sf2_pattern2_cont2_shape1.png	2	2	2	1	1	4	0	0	0	0	0	0	0	0	0	0	0	0	1	8
232.48828125	0.0999951321587105	476136	160	12	stim12_sf2_pattern2_cont1_shape1.png	0	160	0	345.331220221129	345.431215353288	0.0999951321587105	stim12_sf2_pattern2_cont1_shape1.png	2	2	1	1	1	3	0	0	0	0	0	0	0	0	0	0	0	0	1	8
232.98828125	0.100000410540815	477160	161	1	stim01_sf1_pattern1_cont1_shape2.png	0	161	0	345.831206731931	345.931207142472	0.100000410540815	stim01_sf1_pattern1_cont1_shape2.png	1	1	1	2	1	1	0	0	0	0	0	0	0	0	0	0	0	0	1	8
233.48828125	0.0999965983760376	478184	162	7	stim07_sf1_pattern2_cont2_shape2.png	0	162	0	346.331201160306	346.431197758682	0.0999965983760376	stim07_sf1_pattern2_cont2_shape2.png	1	2	2	2	1	2	0	0	0	0	0	0	0	0	0	0	0	0	1	8
233.98828125	0.0999646348413989	479208	163	9	stim09_sf2_pattern1_cont1_shape2.png	0	163	0	346.831156000816	346.931120635658	0.0999646348413989	stim09_sf2_pattern1_cont1_shape2.png	2	1	1	2	1	3	0	0	0	0	0	0	0	0	0	0	0	0	1	8
234.48828125	0.0999983578367392	480232	164	13	stim13_sf2_pattern2_cont1_shape2.png	0	164	0	347.331164211633	347.43116256947	0.0999983578367392	stim13_sf2_pattern2_cont1_shape2.png	2	2	1	2	1	3	0	0	0	0	0	0	0	0	0	0	0	0	1	8
234.98828125	0.100004809192342	481256	165	8	stim08_sf2_pattern1_cont1_shape1.png	0	165	0	347.831146323783	347.931151132975	0.100004809192342	stim08_sf2_pattern1_cont1_shape1.png	2	1	1	1	1	3	0	0	0	0	0	0	0	0	0	0	0	0	1	8
235.48828125	0.0999989443234881	482280	166	6	stim06_sf1_pattern2_cont2_shape1.png	0	166	0	348.331137233236	348.43113617756	0.0999989443234881	stim06_sf1_pattern2_cont2_shape1.png	1	2	2	1	1	2	0	0	0	0	0	0	0	0	0	0	0	0	1	8
235.98828125	0.100007155139792	483304	167	0	stim00_sf1_pattern1_cont1_shape1.png	0	167	0	348.83111787917	348.931125034309	0.100007155139792	stim00_sf1_pattern1_cont1_shape1.png	1	1	1	1	1	1	0	0	0	0	0	0	0	0	0	0	0	0	1	8
236.48828125	0.0999960118892886	484328	168	10	stim10_sf2_pattern1_cont2_shape1.png	0	168	0	349.331111134571	349.43110714646	0.0999960118892886	stim10_sf2_pattern1_cont2_shape1.png	2	1	2	1	1	4	0	0	0	0	0	0	0	0	0	0	0	0	1	8
236.98828125	0.0999995308106918	485352	169	3	stim03_sf1_pattern1_cont2_shape2.png	0	169	0	349.831094419695	349.931093950505	0.0999995308106918	stim03_sf1_pattern1_cont2_shape2.png	1	1	2	2	1	2	0	0	0	0	0	0	0	0	0	0	0	0	1	8
237.48828125	0.0999951321587105	486376	170	11	stim11_sf2_pattern1_cont2_shape2.png	0	170	0	350.331084742661	350.43107987482	0.0999951321587105	stim11_sf2_pattern1_cont2_shape2.png	2	1	2	2	1	4	0	0	0	0	0	0	0	0	0	0	0	0	1	8
237.98828125	0.100005688922465	487400	171	2	stim02_sf1_pattern1_cont2_shape1.png	0	171	0	350.831063335891	350.931069024813	0.100005688922465	stim02_sf1_pattern1_cont2_shape1.png	1	1	2	1	1	2	0	0	0	0	0	0	0	0	0	0	0	0	1	8
281.12060546875	0.0999719659275797	575735	172	7	stim07_sf1_pattern2_cont2_shape2.png	1	0	0	393.963245160897	394.063217126824	0.0999719659275797	stim07_sf1_pattern2_cont2_shape2.png	1	2	2	2	1	2	0	0	0	0	0	0	0	0	0	0	0	0	1	8
281.62060546875	0.0999930794550892	576759	173	2	stim02_sf1_pattern1_cont2_shape1.png	1	1	0	394.463226100073	394.563219179528	0.0999930794550892	stim02_sf1_pattern1_cont2_shape1.png	1	1	2	1	1	2	0	0	0	0	0	0	0	0	0	0	0	0	1	8
282.12060546875	0.100015072712267	577783	174	14	stim14_sf2_pattern2_cont2_shape1.png	1	2	0	394.963201760868	395.063216833581	0.100015072712267	stim14_sf2_pattern2_cont2_shape1.png	2	2	2	1	1	4	0	0	0	0	0	0	0	0	0	0	0	0	1	8
282.62060546875	0.099961995650574	578807	175	4	stim04_sf1_pattern2_cont1_shape1.png	1	3	0	395.463187978427	395.563149974077	0.099961995650574	stim04_sf1_pattern2_cont1_shape1.png	1	2	1	1	1	1	0	0	0	0	0	0	0	0	0	0	0	0	1	8
283.12060546875	0.100005982166294	579831	176	6	stim06_sf1_pattern2_cont2_shape1.png	1	4	0	395.96317976761	396.063185749776	0.100005982166294	stim06_sf1_pattern2_cont2_shape1.png	1	2	2	1	1	2	0	0	0	0	0	0	0	0	0	0	0	0	1	8
283.62060546875	0.0999452807750458	580855	177	0	stim00_sf1_pattern1_cont1_shape1.png	1	5	0	396.46323519062	396.563180471395	0.0999452807750458	stim00_sf1_pattern1_cont1_shape1.png	1	1	1	1	1	1	0	0	0	0	0	0	0	0	0	0	0	0	1	8
284.12060546875	0.100025922719851	581879	178	15	stim15_sf2_pattern2_cont2_shape2.png	1	6	0	396.96312346487	397.06314938759	0.100025922719851	stim15_sf2_pattern2_cont2_shape2.png	2	2	2	2	1	4	0	0	0	0	0	0	0	0	0	0	0	0	1	8
284.62060546875	0.0999963051326631	582903	179	11	stim11_sf2_pattern1_cont2_shape2.png	1	7	0	397.463147510832	397.563143815965	0.0999963051326631	stim11_sf2_pattern1_cont2_shape2.png	2	1	2	2	1	4	0	0	0	0	0	0	0	0	0	0	0	0	1	8
285.1201171875	0.0999866280994866	583926	180	1	stim01_sf1_pattern1_cont1_shape2.png	1	8	0	397.963140179746	398.063126807846	0.0999866280994866	stim01_sf1_pattern1_cont1_shape2.png	1	1	1	2	1	1	0	0	0	0	0	0	0	0	0	0	0	0	1	8
285.6201171875	0.100001290271393	584950	181	3	stim03_sf1_pattern1_cont2_shape2.png	1	9	0	398.46312346487	398.563124755142	0.100001290271393	stim03_sf1_pattern1_cont2_shape2.png	1	1	2	2	1	2	0	0	0	0	0	0	0	0	0	0	0	0	1	8
286.1201171875	0.0999757780919026	585974	182	13	stim13_sf2_pattern2_cont1_shape2.png	1	10	0	398.96311144189	399.063087219982	0.0999757780919026	stim13_sf2_pattern2_cont1_shape2.png	2	2	1	2	1	3	0	0	0	0	0	0	0	0	0	0	0	0	1	8
286.6201171875	0.0999910267510131	586998	183	5	stim05_sf1_pattern2_cont1_shape2.png	1	11	0	399.463095606744	399.563086633495	0.0999910267510131	stim05_sf1_pattern2_cont1_shape2.png	1	2	1	2	1	1	0	0	0	0	0	0	0	0	0	0	0	0	1	8
287.1201171875	0.0999998240536115	588022	184	8	stim08_sf2_pattern1_cont1_shape1.png	1	12	0	399.963081824303	400.063081648356	0.0999998240536115	stim08_sf2_pattern1_cont1_shape1.png	2	1	1	1	1	3	0	0	0	0	0	0	0	0	0	0	0	0	1	8
287.6201171875	0.0999968916194121	589046	185	10	stim10_sf2_pattern1_cont2_shape1.png	1	13	0	400.463067162131	400.56306405375	0.0999968916194121	stim10_sf2_pattern1_cont2_shape1.png	2	1	2	1	1	4	0	0	0	0	0	0	0	0	0	0	0	0	1	8
288.1201171875	0.0999960118892886	590070	186	9	stim09_sf2_pattern1_cont1_shape2.png	1	14	0	400.963053966176	401.063049978065	0.0999960118892886	stim09_sf2_pattern1_cont1_shape2.png	2	1	1	2	1	3	0	0	0	0	0	0	0	0	0	0	0	0	1	8
288.6201171875	0.099992199724511	591094	187	12	stim12_sf2_pattern2_cont1_shape1.png	1	15	0	401.463040770222	401.563032969946	0.099992199724511	stim12_sf2_pattern2_cont1_shape1.png	2	2	1	1	1	3	0	0	0	0	0	0	0	0	0	0	0	0	1	8
289.1201171875	0.0999992375668626	592118	188	5	stim05_sf1_pattern2_cont1_shape2.png	1	16	0	401.96302610805	402.063025345617	0.0999992375668626	stim05_sf1_pattern2_cont1_shape2.png	1	2	1	2	1	1	0	0	0	0	0	0	0	0	0	0	0	0	1	8
289.6201171875	0.0999901470208897	593142	189	9	stim09_sf2_pattern1_cont1_shape2.png	1	17	0	402.463014671555	402.563004818576	0.0999901470208897	stim09_sf2_pattern1_cont1_shape2.png	2	1	1	2	1	3	0	0	0	0	0	0	0	0	0	0	0	0	1	8
290.1201171875	0.100003342975015	594166	190	6	stim06_sf1_pattern2_cont2_shape1.png	1	18	0	402.96298094856	403.062984291535	0.100003342975015	stim06_sf1_pattern2_cont2_shape1.png	1	2	2	1	1	2	0	0	0	0	0	0	0	0	0	0	0	0	1	8
290.6201171875	0.100004809192342	595190	191	13	stim13_sf2_pattern2_cont1_shape2.png	1	19	1	403.462986226942	403.562991036134	0.100004809192342	stim13_sf2_pattern2_cont1_shape2.png	2	2	1	2	1	3	0	0	0	0	0	0	0	0	0	0	0	0	1	8
291.1201171875	0.0999963051326631	596214	192	13	stim13_sf2_pattern2_cont1_shape2.png	1	20	1	403.962973324231	404.062969629364	0.0999963051326631	stim13_sf2_pattern2_cont1_shape2.png	2	2	1	2	1	3	0	0	0	0	0	0	0	0	0	0	0	0	1	8
291.6201171875	0.100021524068325	597238	193	3	stim03_sf1_pattern1_cont2_shape2.png	1	21	2	404.462934322854	404.562955846922	0.100021524068325	stim03_sf1_pattern1_cont2_shape2.png	1	1	2	2	1	2	0	0	0	0	0	0	0	0	0	0	0	0	1	8
292.1201171875	0.0999936659413834	598262	194	5	stim05_sf1_pattern2_cont1_shape2.png	1	22	2	404.962948398539	405.06294206448	0.0999936659413834	stim05_sf1_pattern2_cont1_shape2.png	1	2	1	2	1	1	0	0	0	0	0	0	0	0	0	0	0	0	1	8
292.6201171875	0.0999602361898724	599286	195	13	stim13_sf2_pattern2_cont1_shape2.png	1	23	0	405.462934029611	405.5628942658	0.0999602361898724	stim13_sf2_pattern2_cont1_shape2.png	2	2	1	2	1	3	0	0	0	0	0	0	0	0	0	0	0	0	1	8
293.1201171875	0.0999499726694921	600310	196	14	stim14_sf2_pattern2_cont2_shape1.png	1	24	0	405.962918780952	406.062868753621	0.0999499726694921	stim14_sf2_pattern2_cont2_shape1.png	2	2	2	1	1	4	0	0	0	0	0	0	0	0	0	0	0	0	1	8
293.6201171875	0.0999898537770605	601334	197	1	stim01_sf1_pattern1_cont1_shape2.png	1	25	0	406.462901772833	406.56289162661	0.0999898537770605	stim01_sf1_pattern1_cont1_shape2.png	1	1	1	2	1	1	0	0	0	0	0	0	0	0	0	0	0	0	1	8
294.1201171875	0.099933257793964	602358	198	10	stim10_sf2_pattern1_cont2_shape1.png	1	26	0	406.962889749851	407.062823007645	0.099933257793964	stim10_sf2_pattern1_cont2_shape1.png	2	1	2	1	1	4	0	0	0	0	0	0	0	0	0	0	0	0	1	8
294.6201171875	0.0999291523858119	603382	199	7	stim07_sf1_pattern2_cont2_shape2.png	1	27	0	407.462900306615	407.562829459001	0.0999291523858119	stim07_sf1_pattern2_cont2_shape2.png	1	2	2	2	1	2	0	0	0	0	0	0	0	0	0	0	0	0	1	8
295.1201171875	0.10000598216584	604406	200	15	stim15_sf2_pattern2_cont2_shape2.png	1	28	0	407.962849868744	408.06285585091	0.10000598216584	stim15_sf2_pattern2_cont2_shape2.png	2	2	2	2	1	4	0	0	0	0	0	0	0	0	0	0	0	0	1	8
295.6201171875	0.0999963051326631	605430	201	12	stim12_sf2_pattern2_cont1_shape1.png	1	29	0	408.462826995756	408.562823300889	0.0999963051326631	stim12_sf2_pattern2_cont1_shape1.png	2	2	1	1	1	3	0	0	0	0	0	0	0	0	0	0	0	0	1	8
296.1201171875	0.0999649280847734	606454	202	4	stim04_sf1_pattern2_cont1_shape1.png	1	30	0	408.96284605658	409.062810984664	0.0999649280847734	stim04_sf1_pattern2_cont1_shape1.png	1	2	1	1	1	1	0	0	0	0	0	0	0	0	0	0	0	0	1	8
296.6201171875	0.0999784172827276	607478	203	8	stim08_sf2_pattern1_cont1_shape1.png	1	31	0	409.46281966467	409.562798081953	0.0999784172827276	stim08_sf2_pattern1_cont1_shape1.png	2	1	1	1	1	3	0	0	0	0	0	0	0	0	0	0	0	0	1	8
297.1201171875	0.100011260547944	608502	204	11	stim11_sf2_pattern1_cont2_shape2.png	1	32	0	409.962798551143	410.062809811691	0.100011260547944	stim11_sf2_pattern1_cont2_shape2.png	2	1	2	2	1	4	0	0	0	0	0	0	0	0	0	0	0	0	1	8
297.6201171875	0.0999954254020849	609526	205	3	stim03_sf1_pattern1_cont2_shape2.png	1	33	0	410.462776851129	410.562772276531	0.0999954254020849	stim03_sf1_pattern1_cont2_shape2.png	1	1	2	2	1	2	0	0	0	0	0	0	0	0	0	0	0	0	1	8
298.1201171875	0.0999775375530589	610550	206	0	stim00_sf1_pattern1_cont1_shape1.png	1	34	0	410.962789167353	411.062766704906	0.0999775375530589	stim00_sf1_pattern1_cont1_shape1.png	1	1	1	1	1	1	0	0	0	0	0	0	0	0	0	0	0	0	1	8
298.6201171875	0.100012726765272	611574	207	2	stim02_sf1_pattern1_cont2_shape1.png	1	35	0	411.462748113272	411.562760840037	0.100012726765272	stim02_sf1_pattern1_cont2_shape1.png	1	1	2	1	1	2	0	0	0	0	0	0	0	0	0	0	0	0	1	8
299.1201171875	0.099999530810237	612598	208	15	stim15_sf2_pattern2_cont2_shape2.png	1	36	0	411.962766294365	412.062765825175	0.099999530810237	stim15_sf2_pattern2_cont2_shape2.png	2	2	2	2	1	4	0	0	0	0	0	0	0	0	0	0	0	0	1	8
299.6201171875	0.0999968916198668	613622	209	7	stim07_sf1_pattern2_cont2_shape2.png	1	37	0	412.462750165976	412.562747057596	0.0999968916198668	stim07_sf1_pattern2_cont2_shape2.png	1	2	2	2	1	2	0	0	0	0	0	0	0	0	0	0	0	0	1	8
300.1201171875	0.0999904402642642	614646	210	10	stim10_sf2_pattern1_cont2_shape1.png	1	38	0	412.9627334511	413.062723891364	0.0999904402642642	stim10_sf2_pattern1_cont2_shape1.png	2	1	2	1	1	4	0	0	0	0	0	0	0	0	0	0	0	0	1	8
300.6201171875	0.099999530810237	615670	211	11	stim11_sf2_pattern1_cont2_shape2.png	1	39	0	413.462716736224	413.562716267034	0.099999530810237	stim11_sf2_pattern1_cont2_shape2.png	2	1	2	2	1	4	0	0	0	0	0	0	0	0	0	0	0	0	1	8
301.1201171875	0.0999778307964334	616694	212	8	stim08_sf2_pattern1_cont1_shape1.png	1	40	0	413.962715856494	414.06269368729	0.0999778307964334	stim08_sf2_pattern1_cont1_shape1.png	2	1	1	1	1	3	0	0	0	0	0	0	0	0	0	0	0	0	1	8
301.6201171875	0.0999963051326631	617718	213	12	stim12_sf2_pattern2_cont1_shape1.png	1	41	0	414.462690051071	414.562686356204	0.0999963051326631	stim12_sf2_pattern2_cont1_shape1.png	2	2	1	1	1	3	0	0	0	0	0	0	0	0	0	0	0	0	1	8
302.1201171875	0.0999998240536115	618742	214	6	stim06_sf1_pattern2_cont2_shape1.png	1	42	0	414.962673922682	415.062673746736	0.0999998240536115	stim06_sf1_pattern2_cont2_shape1.png	1	2	2	1	1	2	0	0	0	0	0	0	0	0	0	0	0	0	1	8
302.61962890625	0.0999995308106918	619765	215	9	stim09_sf2_pattern1_cont1_shape2.png	1	43	0	415.46264987672	415.562649407531	0.0999995308106918	stim09_sf2_pattern1_cont1_shape2.png	2	1	1	2	1	3	0	0	0	0	0	0	0	0	0	0	0	0	1	8
303.11962890625	0.0999963051326631	620789	216	1	stim01_sf1_pattern1_cont1_shape2.png	1	44	0	415.962650169964	416.062646475097	0.0999963051326631	stim01_sf1_pattern1_cont1_shape2.png	1	1	1	2	1	1	0	0	0	0	0	0	0	0	0	0	0	0	1	8
303.61962890625	0.0999968916194121	621813	217	2	stim02_sf1_pattern1_cont2_shape1.png	1	45	0	416.462635214549	416.562632106168	0.0999968916194121	stim02_sf1_pattern1_cont2_shape1.png	1	1	2	1	1	2	0	0	0	0	0	0	0	0	0	0	0	0	1	8
304.11962890625	0.100001876757688	622837	218	14	stim14_sf2_pattern2_cont2_shape1.png	1	46	0	416.962607356422	417.06260923318	0.100001876757688	stim14_sf2_pattern2_cont2_shape1.png	2	2	2	1	1	4	0	0	0	0	0	0	0	0	0	0	0	0	1	8
304.61962890625	0.0999960118892886	623861	219	5	stim05_sf1_pattern2_cont1_shape2.png	1	47	0	417.46260970237	417.562605714259	0.0999960118892886	stim05_sf1_pattern2_cont1_shape2.png	1	2	1	2	1	1	0	0	0	0	0	0	0	0	0	0	0	0	1	8
305.11962890625	0.0999983578367392	624885	220	4	stim04_sf1_pattern2_cont1_shape1.png	1	48	0	417.962579498296	418.062577856133	0.0999983578367392	stim04_sf1_pattern2_cont1_shape1.png	1	2	1	1	1	1	0	0	0	0	0	0	0	0	0	0	0	0	1	8
305.61962890625	0.0999936659418381	625909	221	13	stim13_sf2_pattern2_cont1_shape2.png	1	49	0	418.462581844243	418.562575510185	0.0999936659418381	stim13_sf2_pattern2_cont1_shape2.png	2	2	1	2	1	3	0	0	0	0	0	0	0	0	0	0	0	0	1	8
306.11962890625	0.0999989443239429	626933	222	3	stim03_sf1_pattern1_cont2_shape2.png	1	50	0	418.962568355045	419.062567299369	0.0999989443239429	stim03_sf1_pattern1_cont2_shape2.png	1	1	2	2	1	2	0	0	0	0	0	0	0	0	0	0	0	0	1	8
306.61962890625	0.100004515948967	627957	223	0	stim00_sf1_pattern1_cont1_shape1.png	1	51	0	419.462540203675	419.562544719624	0.100004515948967	stim00_sf1_pattern1_cont1_shape1.png	1	1	1	1	1	1	0	0	0	0	0	0	0	0	0	0	0	0	1	8
307.11962890625	0.0999963051326631	628981	224	15	stim15_sf2_pattern2_cont2_shape2.png	1	52	0	419.962542256379	420.062538561512	0.0999963051326631	stim15_sf2_pattern2_cont2_shape2.png	2	2	2	2	1	4	0	0	0	0	0	0	0	0	0	0	0	0	1	8
307.61962890625	0.100021817311699	630005	225	13	stim13_sf2_pattern2_cont1_shape2.png	1	53	1	420.462485953639	420.562507770951	0.100021817311699	stim13_sf2_pattern2_cont1_shape2.png	2	2	1	2	1	3	0	0	0	0	0	0	0	0	0	0	0	0	1	8
308.11962890625	0.100001876757688	631029	226	13	stim13_sf2_pattern2_cont1_shape2.png	1	54	1	420.962517623931	421.062519500688	0.100001876757688	stim13_sf2_pattern2_cont1_shape2.png	2	2	1	2	1	3	0	0	0	0	0	0	0	0	0	0	0	0	1	8
308.61962890625	0.0999963051326631	632053	227	8	stim08_sf2_pattern1_cont1_shape1.png	1	55	2	421.462505014463	421.562501319595	0.0999963051326631	stim08_sf2_pattern1_cont1_shape1.png	2	1	1	1	1	3	0	0	0	0	0	0	0	0	0	0	0	0	1	8
309.11962890625	0.100002170001517	633077	228	4	stim04_sf1_pattern2_cont1_shape1.png	1	56	2	421.962444606315	422.062446776316	0.100002170001517	stim04_sf1_pattern2_cont1_shape1.png	1	2	1	1	1	1	0	0	0	0	0	0	0	0	0	0	0	0	1	8
309.61962890625	0.0999971848632413	634101	229	2	stim02_sf1_pattern1_cont2_shape1.png	1	57	0	422.462428771169	422.562425956032	0.0999971848632413	stim02_sf1_pattern1_cont2_shape1.png	1	1	2	1	1	2	0	0	0	0	0	0	0	0	0	0	0	0	1	8
310.11962890625	0.0999951321591652	635125	230	4	stim04_sf1_pattern2_cont1_shape1.png	1	58	0	422.962404431964	423.062399564123	0.0999951321591652	stim04_sf1_pattern2_cont1_shape1.png	1	2	1	1	1	1	0	0	0	0	0	0	0	0	0	0	0	0	1	8
310.61962890625	0.099992199724511	636149	231	6	stim06_sf1_pattern2_cont2_shape1.png	1	59	0	423.462418507649	423.562410707374	0.099992199724511	stim06_sf1_pattern2_cont2_shape1.png	1	2	2	1	1	2	0	0	0	0	0	0	0	0	0	0	0	0	1	8
311.11962890625	0.0999828159347089	637173	232	14	stim14_sf2_pattern2_cont2_shape1.png	1	60	0	423.962390356279	424.062373172213	0.0999828159347089	stim14_sf2_pattern2_cont2_shape1.png	2	2	2	1	1	4	0	0	0	0	0	0	0	0	0	0	0	0	1	8
311.61962890625	0.0999860416122829	638197	233	5	stim05_sf1_pattern2_cont1_shape2.png	1	61	0	424.462386544114	424.562372585727	0.0999860416122829	stim05_sf1_pattern2_cont1_shape2.png	1	2	1	2	1	1	0	0	0	0	0	0	0	0	0	0	0	0	1	8
312.11962890625	0.0999992375673173	639221	234	0	stim00_sf1_pattern1_cont1_shape1.png	1	62	0	424.962372468429	425.062371705997	0.0999992375673173	stim00_sf1_pattern1_cont1_shape1.png	1	1	1	1	1	1	0	0	0	0	0	0	0	0	0	0	0	0	1	8
312.61962890625	0.0999916132377621	640245	235	7	stim07_sf1_pattern2_cont2_shape2.png	1	63	0	425.462377453568	425.562369066805	0.0999916132377621	stim07_sf1_pattern2_cont2_shape2.png	1	2	2	2	1	2	0	0	0	0	0	0	0	0	0	0	0	0	1	8
313.11962890625	0.0999986510801136	641269	236	3	stim03_sf1_pattern1_cont2_shape2.png	1	64	0	425.962371881943	426.062370533023	0.0999986510801136	stim03_sf1_pattern1_cont2_shape2.png	1	1	2	2	1	2	0	0	0	0	0	0	0	0	0	0	0	0	1	8
313.61962890625	0.100001290270939	642293	237	9	stim09_sf2_pattern1_cont1_shape2.png	1	65	0	426.462350475172	426.562351765443	0.100001290270939	stim09_sf2_pattern1_cont1_shape2.png	2	1	1	2	1	3	0	0	0	0	0	0	0	0	0	0	0	0	1	8
314.11962890625	0.0999916132373073	643317	238	8	stim08_sf2_pattern1_cont1_shape1.png	1	66	0	426.962360445449	427.062352058686	0.0999916132373073	stim08_sf2_pattern1_cont1_shape1.png	2	1	1	1	1	3	0	0	0	0	0	0	0	0	0	0	0	0	1	8
314.61962890625	0.0999373632021161	644341	239	11	stim11_sf2_pattern1_cont2_shape2.png	1	67	0	427.462406484668	427.56234384787	0.0999373632021161	stim11_sf2_pattern1_cont2_shape2.png	2	1	2	2	1	4	0	0	0	0	0	0	0	0	0	0	0	0	1	8
315.11962890625	0.0999919064811365	645365	240	10	stim10_sf2_pattern1_cont2_shape1.png	1	68	0	427.962334640026	428.062326546507	0.0999919064811365	stim10_sf2_pattern1_cont2_shape1.png	2	1	2	1	1	4	0	0	0	0	0	0	0	0	0	0	0	0	1	8
315.61962890625	0.0999945456719615	646389	241	1	stim01_sf1_pattern1_cont1_shape2.png	1	69	0	428.462313526499	428.562308072171	0.0999945456719615	stim01_sf1_pattern1_cont1_shape2.png	1	1	1	2	1	1	0	0	0	0	0	0	0	0	0	0	0	0	1	8
316.11962890625	0.0999965983760376	647413	242	13	stim13_sf2_pattern2_cont1_shape2.png	1	70	0	428.962301503518	429.062298101894	0.0999965983760376	stim13_sf2_pattern2_cont1_shape2.png	2	2	1	2	1	3	0	0	0	0	0	0	0	0	0	0	0	0	1	8
316.61962890625	0.099994838915336	648437	243	12	stim12_sf2_pattern2_cont1_shape1.png	1	71	0	429.462285961616	429.562280800531	0.099994838915336	stim12_sf2_pattern2_cont1_shape1.png	2	2	1	1	1	3	0	0	0	0	0	0	0	0	0	0	0	0	1	8
317.11962890625	0.100027975423927	649461	244	15	stim15_sf2_pattern2_cont2_shape2.png	1	72	0	429.962227899415	430.062255874839	0.100027975423927	stim15_sf2_pattern2_cont2_shape2.png	2	2	2	2	1	4	0	0	0	0	0	0	0	0	0	0	0	0	1	8
317.61962890625	0.0999989443234881	650485	245	12	stim12_sf2_pattern2_cont1_shape1.png	1	73	0	430.462256637272	430.562255581595	0.0999989443234881	stim12_sf2_pattern2_cont1_shape1.png	2	2	1	1	1	3	0	0	0	0	0	0	0	0	0	0	0	0	1	8
318.11962890625	0.0999919064811365	651509	246	13	stim13_sf2_pattern2_cont1_shape2.png	1	74	0	430.962248719699	431.06224062618	0.0999919064811365	stim13_sf2_pattern2_cont1_shape2.png	2	2	1	2	1	3	0	0	0	0	0	0	0	0	0	0	0	0	1	8
318.61962890625	0.0999948389157908	652533	247	8	stim08_sf2_pattern1_cont1_shape1.png	1	75	0	431.462233764284	431.562228603199	0.0999948389157908	stim08_sf2_pattern1_cont1_shape1.png	2	1	1	1	1	3	0	0	0	0	0	0	0	0	0	0	0	0	1	8
319.11962890625	0.099994838915336	653557	248	0	stim00_sf1_pattern1_cont1_shape1.png	1	76	0	431.962219102112	432.062213941027	0.099994838915336	stim00_sf1_pattern1_cont1_shape1.png	1	1	1	1	1	1	0	0	0	0	0	0	0	0	0	0	0	0	1	8
319.61962890625	0.0999968916198668	654581	249	11	stim11_sf2_pattern1_cont2_shape2.png	1	77	0	432.462205612914	432.562202504534	0.0999968916198668	stim11_sf2_pattern1_cont2_shape2.png	2	1	2	2	1	4	0	0	0	0	0	0	0	0	0	0	0	0	1	8
320.119140625	0.0999939591852126	655604	250	3	stim03_sf1_pattern1_cont2_shape2.png	1	78	1	432.962192416959	433.062186376144	0.0999939591852126	stim03_sf1_pattern1_cont2_shape2.png	1	1	2	2	1	2	0	0	0	0	0	0	0	0	0	0	0	0	1	8
320.619140625	0.0999974781066157	656628	251	3	stim03_sf1_pattern1_cont2_shape2.png	1	79	1	433.462175702083	433.56217318019	0.0999974781066157	stim03_sf1_pattern1_cont2_shape2.png	1	1	2	2	1	2	0	0	0	0	0	0	0	0	0	0	0	0	1	8
321.119140625	0.0999983578367392	657652	252	2	stim02_sf1_pattern1_cont2_shape1.png	1	80	2	433.962163092616	434.062161450453	0.0999983578367392	stim02_sf1_pattern1_cont2_shape1.png	1	1	2	1	1	2	0	0	0	0	0	0	0	0	0	0	0	0	1	8
321.619140625	0.0999919064811365	658676	253	6	stim06_sf1_pattern2_cont2_shape1.png	1	81	2	434.462151949365	434.562143855846	0.0999919064811365	stim06_sf1_pattern2_cont2_shape1.png	1	2	2	1	1	2	0	0	0	0	0	0	0	0	0	0	0	0	1	8
322.119140625	0.100001290270939	659700	254	5	stim05_sf1_pattern2_cont1_shape2.png	1	82	0	434.962134061515	435.062135351786	0.100001290270939	stim05_sf1_pattern2_cont1_shape2.png	1	2	1	2	1	1	0	0	0	0	0	0	0	0	0	0	0	0	1	8
322.619140625	0.0999942524285871	660724	255	9	stim09_sf2_pattern1_cont1_shape2.png	1	83	0	435.462127023673	435.562121276102	0.0999942524285871	stim09_sf2_pattern1_cont1_shape2.png	2	1	1	2	1	3	0	0	0	0	0	0	0	0	0	0	0	0	1	8
323.119140625	0.099989560533686	661748	256	7	stim07_sf1_pattern2_cont2_shape2.png	1	84	0	435.962116173666	436.0621057342	0.099989560533686	stim07_sf1_pattern2_cont2_shape2.png	1	2	2	2	1	2	0	0	0	0	0	0	0	0	0	0	0	0	1	8
323.619140625	0.100016832173424	662772	257	14	stim14_sf2_pattern2_cont2_shape1.png	1	85	0	436.462076879045	436.562093711218	0.100016832173424	stim14_sf2_pattern2_cont2_shape1.png	2	2	2	1	1	4	0	0	0	0	0	0	0	0	0	0	0	0	1	8
324.119140625	0.0999933726984636	663796	258	2	stim02_sf1_pattern1_cont2_shape1.png	1	86	0	436.962087142565	437.062080515264	0.0999933726984636	stim02_sf1_pattern1_cont2_shape1.png	1	1	2	1	1	2	0	0	0	0	0	0	0	0	0	0	0	0	1	8
324.619140625	0.100037359213729	664820	259	10	stim10_sf2_pattern1_cont2_shape1.png	1	87	0	437.462034358747	437.562071717961	0.100037359213729	stim10_sf2_pattern1_cont2_shape1.png	2	1	2	1	1	4	0	0	0	0	0	0	0	0	0	0	0	0	1	8
325.119140625	0.10000803487037	665844	260	3	stim03_sf1_pattern1_cont2_shape2.png	1	88	0	437.962046381728	438.062054416598	0.10000803487037	stim03_sf1_pattern1_cont2_shape2.png	1	1	2	2	1	2	0	0	0	0	0	0	0	0	0	0	0	0	1	8
325.619140625	0.100005982166294	666868	261	6	stim06_sf1_pattern2_cont2_shape1.png	1	89	0	438.462029373608	438.562035355775	0.100005982166294	stim06_sf1_pattern2_cont2_shape1.png	1	2	2	1	1	2	0	0	0	0	0	0	0	0	0	0	0	0	1	8
326.119140625	0.0999951321587105	667892	262	4	stim04_sf1_pattern2_cont1_shape1.png	1	90	0	438.962008553325	439.062003685483	0.0999951321587105	stim04_sf1_pattern2_cont1_shape1.png	1	2	1	1	1	1	0	0	0	0	0	0	0	0	0	0	0	0	1	8
326.619140625	0.0999942524285871	668916	263	1	stim01_sf1_pattern1_cont1_shape2.png	1	91	0	439.461995943857	439.561990196285	0.0999942524285871	stim01_sf1_pattern1_cont1_shape2.png	1	1	1	2	1	1	0	0	0	0	0	0	0	0	0	0	0	0	1	8
327.119140625	0.100015072712722	669940	264	7	stim07_sf1_pattern2_cont2_shape2.png	1	92	0	439.961982454658	440.061997527371	0.100015072712722	stim07_sf1_pattern2_cont2_shape2.png	1	2	2	2	1	2	0	0	0	0	0	0	0	0	0	0	0	0	1	8
327.619140625	0.100003049732095	670964	265	9	stim09_sf2_pattern1_cont1_shape2.png	1	93	0	440.461969845191	440.561972894923	0.100003049732095	stim09_sf2_pattern1_cont1_shape2.png	2	1	1	2	1	3	0	0	0	0	0	0	0	0	0	0	0	0	1	8
328.119140625	0.0999989443234881	671988	266	3	stim03_sf1_pattern1_cont2_shape2.png	1	94	0	440.961964860052	441.061963804376	0.0999989443234881	stim03_sf1_pattern1_cont2_shape2.png	1	1	2	2	1	2	0	0	0	0	0	0	0	0	0	0	0	0	1	8
328.619140625	0.0999968916198668	673012	267	4	stim04_sf1_pattern2_cont1_shape1.png	1	95	0	441.461945799229	441.561942690849	0.0999968916198668	stim04_sf1_pattern2_cont1_shape1.png	1	2	1	1	1	1	0	0	0	0	0	0	0	0	0	0	0	0	1	8
329.119140625	0.0999924929678855	674036	268	15	stim15_sf2_pattern2_cont2_shape2.png	1	96	0	441.961945212742	442.06193770571	0.0999924929678855	stim15_sf2_pattern2_cont2_shape2.png	2	2	2	2	1	4	0	0	0	0	0	0	0	0	0	0	0	0	1	8
329.619140625	0.100010087574447	675060	269	2	stim02_sf1_pattern1_cont2_shape1.png	1	97	0	442.461924099215	442.561934186789	0.100010087574447	stim02_sf1_pattern1_cont2_shape1.png	1	1	2	1	1	2	0	0	0	0	0	0	0	0	0	0	0	0	1	8
330.119140625	0.0999968916198668	676084	270	11	stim11_sf2_pattern1_cont2_shape2.png	1	98	0	442.961931137057	443.061928028677	0.0999968916198668	stim11_sf2_pattern1_cont2_shape2.png	2	1	2	2	1	4	0	0	0	0	0	0	0	0	0	0	0	0	1	8
330.619140625	0.0999971848632413	677108	271	8	stim08_sf2_pattern1_cont1_shape1.png	1	99	0	443.461908850556	443.561906035419	0.0999971848632413	stim08_sf2_pattern1_cont1_shape1.png	2	1	1	1	1	3	0	0	0	0	0	0	0	0	0	0	0	0	1	8
331.119140625	0.100000410540815	678132	272	13	stim13_sf2_pattern2_cont1_shape2.png	1	100	0	443.961878353239	444.06187876378	0.100000410540815	stim13_sf2_pattern2_cont1_shape2.png	2	2	1	2	1	3	0	0	0	0	0	0	0	0	0	0	0	0	1	8
331.619140625	0.0999971848627865	679156	273	0	stim00_sf1_pattern1_cont1_shape1.png	1	101	0	444.461893601897	444.56189078676	0.0999971848627865	stim00_sf1_pattern1_cont1_shape1.png	1	1	1	1	1	1	0	0	0	0	0	0	0	0	0	0	0	0	1	8
332.119140625	0.100041464621881	680180	274	14	stim14_sf2_pattern2_cont2_shape1.png	1	102	0	444.961853427546	445.061894892168	0.100041464621881	stim14_sf2_pattern2_cont2_shape1.png	2	2	2	1	1	4	0	0	0	0	0	0	0	0	0	0	0	0	1	8
332.619140625	0.0999951321591652	681204	275	10	stim10_sf2_pattern1_cont2_shape1.png	1	103	0	445.461855773494	445.561850905653	0.0999951321591652	stim10_sf2_pattern1_cont2_shape1.png	2	1	2	1	1	4	0	0	0	0	0	0	0	0	0	0	0	0	1	8
333.119140625	0.099990147020435	682228	276	6	stim06_sf1_pattern2_cont2_shape1.png	1	104	0	445.961844923487	446.061835070507	0.099990147020435	stim06_sf1_pattern2_cont2_shape1.png	1	2	2	1	1	2	0	0	0	0	0	0	0	0	0	0	0	0	1	8
333.619140625	0.0999939591852126	683252	277	1	stim01_sf1_pattern1_cont1_shape2.png	1	105	0	446.461830554559	446.561824513744	0.0999939591852126	stim01_sf1_pattern1_cont1_shape2.png	1	1	1	2	1	1	0	0	0	0	0	0	0	0	0	0	0	0	1	8
334.119140625	0.0999951321591652	684276	278	5	stim05_sf1_pattern2_cont1_shape2.png	1	106	0	446.961816478874	447.061811611033	0.0999951321591652	stim05_sf1_pattern2_cont1_shape2.png	1	2	1	2	1	1	0	0	0	0	0	0	0	0	0	0	0	0	1	8
334.619140625	0.0999986510805684	685300	279	12	stim12_sf2_pattern2_cont1_shape1.png	1	107	0	447.461800057241	447.561798708321	0.0999986510805684	stim12_sf2_pattern2_cont1_shape1.png	2	2	1	1	1	3	0	0	0	0	0	0	0	0	0	0	0	0	1	8
335.119140625	0.0999951321591652	686324	280	10	stim10_sf2_pattern1_cont2_shape1.png	1	108	0	447.96178891399	448.06178404615	0.0999951321591652	stim10_sf2_pattern1_cont2_shape1.png	2	1	2	1	1	4	0	0	0	0	0	0	0	0	0	0	0	0	1	8
335.619140625	0.0999933726980089	687348	281	13	stim13_sf2_pattern2_cont1_shape2.png	1	109	0	448.461777184253	448.561770556951	0.0999933726980089	stim13_sf2_pattern2_cont1_shape2.png	2	2	1	2	1	3	0	0	0	0	0	0	0	0	0	0	0	0	1	8
336.119140625	0.0999977713499902	688372	282	3	stim03_sf1_pattern1_cont2_shape2.png	1	110	0	448.961761349107	449.061759120457	0.0999977713499902	stim03_sf1_pattern1_cont2_shape2.png	1	1	2	2	1	2	0	0	0	0	0	0	0	0	0	0	0	0	1	8
336.619140625	0.0999968916198668	689396	283	14	stim14_sf2_pattern2_cont2_shape1.png	1	111	0	449.461748446396	449.561745338016	0.0999968916198668	stim14_sf2_pattern2_cont2_shape1.png	2	2	2	1	1	4	0	0	0	0	0	0	0	0	0	0	0	0	1	8
337.119140625	0.099992199724511	690420	284	1	stim01_sf1_pattern1_cont1_shape2.png	1	112	0	449.961734370711	450.061726570436	0.099992199724511	stim01_sf1_pattern1_cont1_shape2.png	1	1	1	2	1	1	0	0	0	0	0	0	0	0	0	0	0	0	1	8
337.61865234375	0.10001859163367	691443	285	0	stim00_sf1_pattern1_cont1_shape1.png	1	113	0	450.461698301769	450.561716893402	0.10001859163367	stim00_sf1_pattern1_cont1_shape1.png	1	1	1	1	1	1	0	0	0	0	0	0	0	0	0	0	0	0	1	8
338.11865234375	0.099997478106161	692467	286	15	stim15_sf2_pattern2_cont2_shape2.png	1	114	0	450.961710617993	451.061708096099	0.099997478106161	stim15_sf2_pattern2_cont2_shape2.png	2	2	2	2	1	4	0	0	0	0	0	0	0	0	0	0	0	0	1	8
338.61865234375	0.100903893569011	693491	287	11	stim11_sf2_pattern1_cont2_shape2.png	1	115	0	451.461691263926	451.562595157495	0.100903893569011	stim11_sf2_pattern1_cont2_shape2.png	2	1	2	2	1	4	0	0	0	0	0	0	0	0	0	0	0	0	1	8
339.11865234375	0.100036479483606	694515	288	5	stim05_sf1_pattern2_cont1_shape2.png	1	116	0	451.961636427403	452.061672906887	0.100036479483606	stim05_sf1_pattern2_cont1_shape2.png	1	2	1	2	1	1	0	0	0	0	0	0	0	0	0	0	0	0	1	8
339.61865234375	0.0999661010587261	695539	289	4	stim04_sf1_pattern2_cont1_shape1.png	1	117	0	452.461675135537	452.561641236596	0.0999661010587261	stim04_sf1_pattern2_cont1_shape1.png	1	2	1	1	1	1	0	0	0	0	0	0	0	0	0	0	0	0	1	8
340.11865234375	0.0999945456719615	696563	290	9	stim09_sf2_pattern1_cont1_shape2.png	1	118	0	452.961651676062	453.061646221734	0.0999945456719615	stim09_sf2_pattern1_cont1_shape2.png	2	1	1	2	1	3	0	0	0	0	0	0	0	0	0	0	0	0	1	8
340.61865234375	0.0999690334933803	697587	291	12	stim12_sf2_pattern2_cont1_shape1.png	1	119	0	453.461643172002	453.561612205496	0.0999690334933803	stim12_sf2_pattern2_cont1_shape1.png	2	2	1	1	1	3	0	0	0	0	0	0	0	0	0	0	0	0	1	8
341.11865234375	0.0999637551112755	698611	292	7	stim07_sf1_pattern2_cont2_shape2.png	1	120	0	453.961623231449	454.06158698656	0.0999637551112755	stim07_sf1_pattern2_cont2_shape2.png	1	2	2	2	1	2	0	0	0	0	0	0	0	0	0	0	0	0	1	8
341.61865234375	0.100009207843868	699635	293	6	stim06_sf1_pattern2_cont2_shape1.png	1	121	0	454.461596253052	454.561605460896	0.100009207843868	stim06_sf1_pattern2_cont2_shape1.png	1	2	2	1	1	2	0	0	0	0	0	0	0	0	0	0	0	0	1	8
342.11865234375	0.100016832173424	700659	294	8	stim08_sf2_pattern1_cont1_shape1.png	1	122	0	454.961548454372	455.061565286546	0.100016832173424	stim08_sf2_pattern1_cont1_shape1.png	2	1	1	1	1	3	0	0	0	0	0	0	0	0	0	0	0	0	1	8
342.61865234375	0.0999719659275797	701683	295	2	stim02_sf1_pattern1_cont2_shape1.png	1	123	0	455.461566342222	455.561538308149	0.0999719659275797	stim02_sf1_pattern1_cont2_shape1.png	1	1	2	1	1	2	0	0	0	0	0	0	0	0	0	0	0	0	1	8
343.11865234375	0.100008328113745	702707	296	13	stim13_sf2_pattern2_cont1_shape2.png	1	124	0	455.961565169248	456.061573497362	0.100008328113745	stim13_sf2_pattern2_cont1_shape2.png	2	2	1	2	1	3	0	0	0	0	0	0	0	0	0	0	0	0	1	8
343.61865234375	0.0999857483689084	703731	297	7	stim07_sf1_pattern2_cont2_shape2.png	1	125	0	456.461546108425	456.561531856794	0.0999857483689084	stim07_sf1_pattern2_cont2_shape2.png	1	2	2	2	1	2	0	0	0	0	0	0	0	0	0	0	0	0	1	8
344.11865234375	0.0999863348556573	704755	298	12	stim12_sf2_pattern2_cont1_shape1.png	1	126	0	456.961536724635	457.061523059491	0.0999863348556573	stim12_sf2_pattern2_cont1_shape1.png	2	2	1	1	1	3	0	0	0	0	0	0	0	0	0	0	0	0	1	8
344.61865234375	0.0999933726984636	705779	299	4	stim04_sf1_pattern2_cont1_shape1.png	1	127	0	457.46151502462	457.561508397319	0.0999933726984636	stim04_sf1_pattern2_cont1_shape1.png	1	2	1	1	1	1	0	0	0	0	0	0	0	0	0	0	0	0	1	8
345.11865234375	0.0999939591852126	706803	300	15	stim15_sf2_pattern2_cont2_shape2.png	1	128	0	457.961534085444	458.061528044629	0.0999939591852126	stim15_sf2_pattern2_cont2_shape2.png	2	2	2	2	1	4	0	0	0	0	0	0	0	0	0	0	0	0	1	8
345.61865234375	0.0999948389157908	707827	301	0	stim00_sf1_pattern1_cont1_shape1.png	1	129	0	458.46151502462	458.561509863536	0.0999948389157908	stim00_sf1_pattern1_cont1_shape1.png	1	1	1	1	1	1	0	0	0	0	0	0	0	0	0	0	0	0	1	8
346.11865234375	0.0999998240536115	708851	302	2	stim02_sf1_pattern1_cont2_shape1.png	1	130	0	458.961474557027	459.06147438108	0.0999998240536115	stim02_sf1_pattern1_cont2_shape1.png	1	1	2	1	1	2	0	0	0	0	0	0	0	0	0	0	0	0	1	8
346.61865234375	0.0999971848627865	709875	303	11	stim11_sf2_pattern1_cont2_shape2.png	1	131	0	459.461477196217	459.56147438108	0.0999971848627865	stim11_sf2_pattern1_cont2_shape2.png	2	1	2	2	1	4	0	0	0	0	0	0	0	0	0	0	0	0	1	8
347.11865234375	0.10001624568622	710899	304	5	stim05_sf1_pattern2_cont1_shape2.png	1	132	0	459.961468692158	460.061484937844	0.10001624568622	stim05_sf1_pattern2_cont1_shape2.png	1	2	1	2	1	1	0	0	0	0	0	0	0	0	0	0	0	0	1	8
347.61865234375	0.0999963051326631	711923	305	6	stim06_sf1_pattern2_cont2_shape1.png	1	133	0	460.461453443499	460.561449748632	0.0999963051326631	stim06_sf1_pattern2_cont2_shape1.png	1	2	2	1	1	2	0	0	0	0	0	0	0	0	0	0	0	0	1	8
348.11865234375	0.0999951321591652	712947	306	1	stim01_sf1_pattern1_cont1_shape2.png	1	134	0	460.961439661057	461.061434793216	0.0999951321591652	stim01_sf1_pattern1_cont1_shape2.png	1	1	1	2	1	1	0	0	0	0	0	0	0	0	0	0	0	0	1	8
348.61865234375	0.100008328113745	713971	307	9	stim09_sf2_pattern1_cont1_shape2.png	1	135	0	461.461408870497	461.56141719861	0.100008328113745	stim09_sf2_pattern1_cont1_shape2.png	2	1	1	2	1	3	0	0	0	0	0	0	0	0	0	0	0	0	1	8
349.11865234375	0.100001583514768	714995	308	14	stim14_sf2_pattern2_cont2_shape1.png	1	136	0	461.961413562391	462.061415145906	0.100001583514768	stim14_sf2_pattern2_cont2_shape1.png	2	2	2	1	1	4	0	0	0	0	0	0	0	0	0	0	0	0	1	8
349.61865234375	0.0999939591852126	716019	309	3	stim03_sf1_pattern1_cont2_shape2.png	1	137	0	462.461401246167	462.561395205352	0.0999939591852126	stim03_sf1_pattern1_cont2_shape2.png	1	1	2	2	1	2	0	0	0	0	0	0	0	0	0	0	0	0	1	8
350.11865234375	0.0999957186459142	717043	310	8	stim08_sf2_pattern1_cont1_shape1.png	1	138	0	462.961385997508	463.061381716154	0.0999957186459142	stim08_sf2_pattern1_cont1_shape1.png	2	1	1	1	1	3	0	0	0	0	0	0	0	0	0	0	0	0	1	8
350.61865234375	0.0999845753954105	718067	311	10	stim10_sf2_pattern1_cont2_shape1.png	1	139	0	463.461370162363	463.561354737758	0.0999845753954105	stim10_sf2_pattern1_cont2_shape1.png	2	1	2	1	1	4	0	0	0	0	0	0	0	0	0	0	0	0	1	8
351.11865234375	0.0999980645933647	719091	312	6	stim06_sf1_pattern2_cont2_shape1.png	1	140	0	463.961356966408	464.061355031002	0.0999980645933647	stim06_sf1_pattern2_cont2_shape1.png	1	2	2	1	1	2	0	0	0	0	0	0	0	0	0	0	0	0	1	8
351.61865234375	0.0999930794550892	720115	313	1	stim01_sf1_pattern1_cont1_shape2.png	1	141	0	464.461345236671	464.561338316126	0.0999930794550892	stim01_sf1_pattern1_cont1_shape2.png	1	1	1	2	1	1	0	0	0	0	0	0	0	0	0	0	0	0	1	8
352.11865234375	0.0999936659418381	721139	314	11	stim11_sf2_pattern1_cont2_shape2.png	1	142	0	464.961333800177	465.061327466119	0.0999936659418381	stim11_sf2_pattern1_cont2_shape2.png	2	1	2	2	1	4	0	0	0	0	0	0	0	0	0	0	0	0	1	8
352.61865234375	0.0999939591852126	722163	315	2	stim02_sf1_pattern1_cont2_shape1.png	1	143	0	465.461318844762	465.561312803947	0.0999939591852126	stim02_sf1_pattern1_cont2_shape1.png	1	1	2	1	1	2	0	0	0	0	0	0	0	0	0	0	0	0	1	8
353.11865234375	0.099992199724511	723187	316	14	stim14_sf2_pattern2_cont2_shape1.png	1	144	0	465.961306235294	466.061298435018	0.099992199724511	stim14_sf2_pattern2_cont2_shape1.png	2	2	2	1	1	4	0	0	0	0	0	0	0	0	0	0	0	0	1	8
353.61865234375	0.0999977713495355	724211	317	12	stim12_sf2_pattern2_cont1_shape1.png	1	145	0	466.461292159609	466.561289930959	0.0999977713495355	stim12_sf2_pattern2_cont1_shape1.png	2	2	1	1	1	3	0	0	0	0	0	0	0	0	0	0	0	0	1	8
354.11865234375	0.0999907335071839	725235	318	5	stim05_sf1_pattern2_cont1_shape2.png	1	146	0	466.961281896089	467.061272629596	0.0999907335071839	stim05_sf1_pattern2_cont1_shape2.png	1	2	1	2	1	1	0	0	0	0	0	0	0	0	0	0	0	0	1	8
354.6181640625	0.100027682180553	726258	319	13	stim13_sf2_pattern2_cont1_shape2.png	1	147	0	467.461259316344	467.561286998524	0.100027682180553	stim13_sf2_pattern2_cont1_shape2.png	2	2	1	2	1	3	0	0	0	0	0	0	0	0	0	0	0	0	1	8
355.1181640625	0.0999549578082224	727282	320	3	stim03_sf1_pattern1_cont2_shape2.png	1	148	0	467.96124787985	468.061202837658	0.0999549578082224	stim03_sf1_pattern1_cont2_shape2.png	1	1	2	2	1	2	0	0	0	0	0	0	0	0	0	0	0	0	1	8
355.6181640625	0.0999904402638094	728306	321	10	stim10_sf2_pattern1_cont2_shape1.png	1	149	0	468.461229698757	468.561220139021	0.0999904402638094	stim10_sf2_pattern1_cont2_shape1.png	2	1	2	1	1	4	0	0	0	0	0	0	0	0	0	0	0	0	1	8
356.1181640625	0.099997478106161	729330	322	0	stim00_sf1_pattern1_cont1_shape1.png	1	150	0	468.961229698757	469.061227176863	0.099997478106161	stim00_sf1_pattern1_cont1_shape1.png	1	1	1	1	1	1	0	0	0	0	0	0	0	0	0	0	0	0	1	8
356.6181640625	0.0999772443092297	730354	323	8	stim08_sf2_pattern1_cont1_shape1.png	1	151	0	469.461206239282	469.561183483591	0.0999772443092297	stim08_sf2_pattern1_cont1_shape1.png	2	1	1	1	1	3	0	0	0	0	0	0	0	0	0	0	0	0	1	8
357.1181640625	0.0999825226913345	731378	324	7	stim07_sf1_pattern2_cont2_shape2.png	1	152	0	469.961187764945	470.061170287637	0.0999825226913345	stim07_sf1_pattern2_cont2_shape2.png	1	2	2	2	1	2	0	0	0	0	0	0	0	0	0	0	0	0	1	8
357.6181640625	0.0999836956648323	732402	325	4	stim04_sf1_pattern2_cont1_shape1.png	1	153	0	470.461159906819	470.561143602484	0.0999836956648323	stim04_sf1_pattern2_cont1_shape1.png	1	2	1	1	1	1	0	0	0	0	0	0	0	0	0	0	0	0	1	8
358.1181640625	0.0999517321306485	733426	326	9	stim09_sf2_pattern1_cont1_shape2.png	1	154	0	470.961199494683	471.061151226813	0.0999517321306485	stim09_sf2_pattern1_cont1_shape2.png	2	1	1	2	1	3	0	0	0	0	0	0	0	0	0	0	0	0	1	8
358.6181640625	0.0999637551112755	734450	327	15	stim15_sf2_pattern2_cont2_shape2.png	1	155	0	471.461171050069	471.561134805181	0.0999637551112755	stim15_sf2_pattern2_cont2_shape2.png	2	2	2	2	1	4	0	0	0	0	0	0	0	0	0	0	0	0	1	8
359.1181640625	0.0999939591852126	735474	328	4	stim04_sf1_pattern2_cont1_shape1.png	1	156	0	471.961128236528	472.061122195713	0.0999939591852126	stim04_sf1_pattern2_cont1_shape1.png	1	2	1	1	1	1	0	0	0	0	0	0	0	0	0	0	0	0	1	8
359.6181640625	0.0999816429607563	736498	329	15	stim15_sf2_pattern2_cont2_shape2.png	1	157	0	472.461131462206	472.561113105166	0.0999816429607563	stim15_sf2_pattern2_cont2_shape2.png	2	2	2	2	1	4	0	0	0	0	0	0	0	0	0	0	0	0	1	8
360.1181640625	0.0999957186459142	737522	330	7	stim07_sf1_pattern2_cont2_shape2.png	1	158	0	472.961124424363	473.061120143009	0.0999957186459142	stim07_sf1_pattern2_cont2_shape2.png	1	2	2	2	1	2	0	0	0	0	0	0	0	0	0	0	0	0	1	8
360.6181640625	0.0999702064668782	738546	331	13	stim13_sf2_pattern2_cont1_shape2.png	1	159	0	473.46110624327	473.561076449737	0.0999702064668782	stim13_sf2_pattern2_cont1_shape2.png	2	2	1	2	1	3	0	0	0	0	0	0	0	0	0	0	0	0	1	8
361.1181640625	0.0999919064811365	739570	332	14	stim14_sf2_pattern2_cont2_shape1.png	1	160	0	473.961093633802	474.061085540283	0.0999919064811365	stim14_sf2_pattern2_cont2_shape1.png	2	2	2	1	1	4	0	0	0	0	0	0	0	0	0	0	0	0	1	8
361.6181640625	0.0999963051331179	740594	333	11	stim11_sf2_pattern1_cont2_shape2.png	1	161	0	474.461075159466	474.561071464599	0.0999963051331179	stim11_sf2_pattern1_cont2_shape2.png	2	1	2	2	1	4	0	0	0	0	0	0	0	0	0	0	0	0	1	8
362.1181640625	0.100003929461764	741618	334	10	stim10_sf2_pattern1_cont2_shape1.png	1	162	0	474.961064602702	475.061068532164	0.100003929461764	stim10_sf2_pattern1_cont2_shape1.png	2	1	2	1	1	4	0	0	0	0	0	0	0	0	0	0	0	0	1	8
362.6181640625	0.100022403798448	742642	335	5	stim05_sf1_pattern2_cont1_shape2.png	1	163	0	475.461024135108	475.561046538906	0.100022403798448	stim05_sf1_pattern2_cont1_shape2.png	1	2	1	2	1	1	0	0	0	0	0	0	0	0	0	0	0	0	1	8
363.1181640625	0.100015072712722	743666	336	8	stim08_sf2_pattern1_cont1_shape1.png	1	164	0	475.961036451332	476.061051524045	0.100015072712722	stim08_sf2_pattern1_cont1_shape1.png	2	1	1	1	1	3	0	0	0	0	0	0	0	0	0	0	0	0	1	8
363.6181640625	0.0999968916198668	744690	337	1	stim01_sf1_pattern1_cont1_shape2.png	1	165	0	476.461021495917	476.561018387536	0.0999968916198668	stim01_sf1_pattern1_cont1_shape2.png	1	1	1	2	1	1	0	0	0	0	0	0	0	0	0	0	0	0	1	8
364.1181640625	0.0999960118892886	745714	338	9	stim09_sf2_pattern1_cont1_shape2.png	1	166	0	476.961009179693	477.061005191582	0.0999960118892886	stim09_sf2_pattern1_cont1_shape2.png	2	1	1	2	1	3	0	0	0	0	0	0	0	0	0	0	0	0	1	8
364.6181640625	0.0999960118892886	746738	339	6	stim06_sf1_pattern2_cont2_shape1.png	1	167	0	477.460994810764	477.560990822653	0.0999960118892886	stim06_sf1_pattern2_cont2_shape1.png	1	2	2	1	1	2	0	0	0	0	0	0	0	0	0	0	0	0	1	8
365.1181640625	0.0999939591852126	747762	340	0	stim00_sf1_pattern1_cont1_shape1.png	1	168	0	477.960983081027	478.060977040212	0.0999939591852126	stim00_sf1_pattern1_cont1_shape1.png	1	1	1	1	1	1	0	0	0	0	0	0	0	0	0	0	0	0	1	8
365.6181640625	0.0999977713499902	748786	341	3	stim03_sf1_pattern1_cont2_shape2.png	1	169	0	478.460966659394	478.560964430744	0.0999977713499902	stim03_sf1_pattern1_cont2_shape2.png	1	1	2	2	1	2	0	0	0	0	0	0	0	0	0	0	0	0	1	8
366.1181640625	0.100001583514768	749810	342	12	stim12_sf2_pattern2_cont1_shape1.png	1	170	0	478.960948478301	479.060950061816	0.100001583514768	stim12_sf2_pattern2_cont1_shape1.png	2	2	1	1	1	3	0	0	0	0	0	0	0	0	0	0	0	0	1	8
366.6181640625	0.0999945456719615	750834	343	2	stim02_sf1_pattern1_cont2_shape1.png	1	171	0	479.460941147215	479.560935692887	0.0999945456719615	stim02_sf1_pattern1_cont2_shape1.png	1	1	2	1	1	2	0	0	0	0	0	0	0	0	0	0	0	0	1	8
398.525390625	0.099989560533686	816180	344	4	stim04_sf1_pattern2_cont1_shape1.png	2	0	0	511.368420790256	511.468410350789	0.099989560533686	stim04_sf1_pattern2_cont1_shape1.png	1	2	1	1	1	1	0	0	0	0	0	0	0	0	0	0	0	0	1	8
399.025390625	0.100000410540815	817204	345	10	stim10_sf2_pattern1_cont2_shape1.png	2	1	0	511.868397037537	511.968397448078	0.100000410540815	stim10_sf2_pattern1_cont2_shape1.png	2	1	2	1	1	4	0	0	0	0	0	0	0	0	0	0	0	0	1	8
399.525390625	0.0999872145862355	818228	346	13	stim13_sf2_pattern2_cont1_shape2.png	2	2	0	512.368368886167	512.468356100754	0.0999872145862355	stim13_sf2_pattern2_cont1_shape2.png	2	2	1	2	1	3	0	0	0	0	0	0	0	0	0	0	0	0	1	8
400.025390625	0.0999754848485281	819252	347	0	stim00_sf1_pattern1_cont1_shape1.png	2	3	0	512.868373871306	512.968349356155	0.0999754848485281	stim00_sf1_pattern1_cont1_shape1.png	1	1	1	1	1	1	0	0	0	0	0	0	0	0	0	0	0	0	1	8
400.525390625	0.100000410540815	820276	348	7	stim07_sf1_pattern2_cont2_shape2.png	2	4	0	513.36835715643	513.468357566971	0.100000410540815	stim07_sf1_pattern2_cont2_shape2.png	1	2	2	2	1	2	0	0	0	0	0	0	0	0	0	0	0	0	1	8
401.025390625	0.100008621357119	821300	349	12	stim12_sf2_pattern2_cont1_shape1.png	2	5	0	513.868332523981	513.968341145338	0.100008621357119	stim12_sf2_pattern2_cont1_shape1.png	2	2	1	1	1	3	0	0	0	0	0	0	0	0	0	0	0	0	1	8
401.525390625	0.100004515948967	822324	350	2	stim02_sf1_pattern1_cont2_shape1.png	2	6	0	514.368329591547	514.468334107496	0.100004515948967	stim02_sf1_pattern1_cont2_shape1.png	1	1	2	1	1	2	0	0	0	0	0	0	0	0	0	0	0	0	1	8
402.025390625	0.099984282152036	823348	351	11	stim11_sf2_pattern1_cont2_shape2.png	2	7	0	514.86831111721	514.968295399362	0.099984282152036	stim11_sf2_pattern1_cont2_shape2.png	2	1	2	2	1	4	0	0	0	0	0	0	0	0	0	0	0	0	1	8
402.525390625	0.10000070378419	824372	352	6	stim06_sf1_pattern2_cont2_shape1.png	2	8	0	515.368306718559	515.468307422343	0.10000070378419	stim06_sf1_pattern2_cont2_shape1.png	1	2	2	1	1	2	0	0	0	0	0	0	0	0	0	0	0	0	1	8
403.025390625	0.100006275409669	825396	353	14	stim14_sf2_pattern2_cont2_shape1.png	2	9	0	515.868282379354	515.968288654763	0.100006275409669	stim14_sf2_pattern2_cont2_shape1.png	2	2	2	1	1	4	0	0	0	0	0	0	0	0	0	0	0	0	1	8
403.525390625	0.100001290270939	826420	354	1	stim01_sf1_pattern1_cont1_shape2.png	2	10	0	516.368279740163	516.468281030434	0.100001290270939	stim01_sf1_pattern1_cont1_shape2.png	1	1	1	2	1	1	0	0	0	0	0	0	0	0	0	0	0	0	1	8
404.025390625	0.0999977713495355	827444	355	5	stim05_sf1_pattern2_cont1_shape2.png	2	11	0	516.868255987445	516.968253758794	0.0999977713495355	stim05_sf1_pattern2_cont1_shape2.png	1	2	1	2	1	1	0	0	0	0	0	0	0	0	0	0	0	0	1	8
404.525390625	0.0999936659418381	828468	356	8	stim08_sf2_pattern1_cont1_shape1.png	2	12	0	517.368254521227	517.468248187169	0.0999936659418381	stim08_sf2_pattern1_cont1_shape1.png	2	1	1	1	1	3	0	0	0	0	0	0	0	0	0	0	0	0	1	8
405.025390625	0.0999942524285871	829492	357	3	stim03_sf1_pattern1_cont2_shape2.png	2	13	0	517.868241032029	517.968235284458	0.0999942524285871	stim03_sf1_pattern1_cont2_shape2.png	1	1	2	2	1	2	0	0	0	0	0	0	0	0	0	0	0	0	1	8
405.525390625	0.0999939591852126	830516	358	9	stim09_sf2_pattern1_cont1_shape2.png	2	14	0	518.368227542831	518.468221502016	0.0999939591852126	stim09_sf2_pattern1_cont1_shape2.png	2	1	1	2	1	3	0	0	0	0	0	0	0	0	0	0	0	0	1	8
406.025390625	0.100013899738769	831540	359	15	stim15_sf2_pattern2_cont2_shape2.png	2	15	1	518.868200271192	518.96821417093	0.100013899738769	stim15_sf2_pattern2_cont2_shape2.png	2	2	2	2	1	4	0	0	0	0	0	0	0	0	0	0	0	0	1	8
406.525390625	0.0999464537485437	832564	360	15	stim15_sf2_pattern2_cont2_shape2.png	2	16	1	519.368229009048	519.468175462797	0.0999464537485437	stim15_sf2_pattern2_cont2_shape2.png	2	2	2	2	1	4	0	0	0	0	0	0	0	0	0	0	0	0	1	8
407.025390625	0.0999845753949558	833588	361	0	stim00_sf1_pattern1_cont1_shape1.png	2	17	2	519.868182969829	519.968167545224	0.0999845753949558	stim00_sf1_pattern1_cont1_shape1.png	1	1	1	1	1	1	0	0	0	0	0	0	0	0	0	0	0	0	1	8
407.525390625	0.0999898537770605	834612	362	12	stim12_sf2_pattern2_cont1_shape1.png	2	18	2	520.368170360361	520.468160214138	0.0999898537770605	stim12_sf2_pattern2_cont1_shape1.png	2	2	1	1	1	3	0	0	0	0	0	0	0	0	0	0	0	0	1	8
408.025390625	0.0999933726984636	835636	363	15	stim15_sf2_pattern2_cont2_shape2.png	2	19	0	520.868147780616	520.968141153315	0.0999933726984636	stim15_sf2_pattern2_cont2_shape2.png	2	2	2	2	1	4	0	0	0	0	0	0	0	0	0	0	0	0	1	8
408.525390625	0.0999599429464979	836660	364	7	stim07_sf1_pattern2_cont2_shape2.png	2	20	0	521.368145141425	521.468105084372	0.0999599429464979	stim07_sf1_pattern2_cont2_shape2.png	1	2	2	2	1	2	0	0	0	0	0	0	0	0	0	0	0	0	1	8
409.025390625	0.0999878010734392	837684	365	15	stim15_sf2_pattern2_cont2_shape2.png	2	21	0	521.868112004917	521.96809980599	0.0999878010734392	stim15_sf2_pattern2_cont2_shape2.png	2	2	2	2	1	4	0	0	0	0	0	0	0	0	0	0	0	0	1	8
409.525390625	0.0999892672903115	838708	366	5	stim05_sf1_pattern2_cont1_shape2.png	2	22	0	522.368106726535	522.468095993826	0.0999892672903115	stim05_sf1_pattern2_cont1_shape2.png	1	2	1	2	1	1	0	0	0	0	0	0	0	0	0	0	0	0	1	8
410.025390625	0.0999977713499902	839732	367	11	stim11_sf2_pattern1_cont2_shape2.png	2	23	0	522.868085319764	522.968083091114	0.0999977713499902	stim11_sf2_pattern1_cont2_shape2.png	2	1	2	2	1	4	0	0	0	0	0	0	0	0	0	0	0	0	1	8
410.525390625	0.0999954254025397	840756	368	0	stim00_sf1_pattern1_cont1_shape1.png	2	24	0	523.368035761624	523.468031187026	0.0999954254025397	stim00_sf1_pattern1_cont1_shape1.png	1	1	1	1	1	1	0	0	0	0	0	0	0	0	0	0	0	0	1	8
411.025390625	0.0999795902566802	841780	369	4	stim04_sf1_pattern2_cont1_shape1.png	2	25	0	523.868095290041	523.968074880298	0.0999795902566802	stim04_sf1_pattern2_cont1_shape1.png	1	2	1	1	1	1	0	0	0	0	0	0	0	0	0	0	0	0	1	8
411.525390625	0.0999986510801136	842804	370	3	stim03_sf1_pattern1_cont2_shape2.png	2	26	0	524.368068311645	524.468066962725	0.0999986510801136	stim03_sf1_pattern1_cont2_shape2.png	1	1	2	2	1	2	0	0	0	0	0	0	0	0	0	0	0	0	1	8
412.02490234375	0.0999913199943876	843827	371	8	stim08_sf2_pattern1_cont1_shape1.png	2	27	0	524.868038107571	524.968029427565	0.0999913199943876	stim08_sf2_pattern1_cont1_shape1.png	2	1	1	1	1	3	0	0	0	0	0	0	0	0	0	0	0	0	1	8
412.52490234375	0.100002756488266	844851	372	10	stim10_sf2_pattern1_cont2_shape1.png	2	28	0	525.36803546838	525.468038224868	0.100002756488266	stim10_sf2_pattern1_cont2_shape1.png	2	1	2	1	1	4	0	0	0	0	0	0	0	0	0	0	0	0	1	8
413.02490234375	0.100008034869916	845875	373	9	stim09_sf2_pattern1_cont1_shape2.png	2	29	0	525.868022272426	525.968030307296	0.100008034869916	stim09_sf2_pattern1_cont1_shape2.png	2	1	1	2	1	3	0	0	0	0	0	0	0	0	0	0	0	0	1	8
413.52490234375	0.0999968916194121	846899	374	12	stim12_sf2_pattern2_cont1_shape1.png	2	30	0	526.368007903497	526.468004795116	0.0999968916194121	stim12_sf2_pattern2_cont1_shape1.png	2	2	1	1	1	3	0	0	0	0	0	0	0	0	0	0	0	0	1	8
414.02490234375	0.0999851618821594	847923	375	6	stim06_sf1_pattern2_cont2_shape1.png	2	31	0	526.867989135917	526.967974297799	0.0999851618821594	stim06_sf1_pattern2_cont2_shape1.png	1	2	2	1	1	2	0	0	0	0	0	0	0	0	0	0	0	0	1	8
414.52490234375	0.100007155139792	848947	376	13	stim13_sf2_pattern2_cont1_shape2.png	2	32	0	527.367934006151	527.467941161291	0.100007155139792	stim13_sf2_pattern2_cont1_shape2.png	2	2	1	2	1	3	0	0	0	0	0	0	0	0	0	0	0	0	1	8
415.02490234375	0.0999804699868037	849971	377	2	stim02_sf1_pattern1_cont2_shape1.png	2	33	0	527.867966556173	527.967947026159	0.0999804699868037	stim02_sf1_pattern1_cont2_shape1.png	1	1	2	1	1	2	0	0	0	0	0	0	0	0	0	0	0	0	1	8
415.52490234375	0.0999552510515969	850995	378	1	stim01_sf1_pattern1_cont1_shape2.png	2	34	0	528.367974473745	528.467929724797	0.0999552510515969	stim01_sf1_pattern1_cont1_shape2.png	1	1	1	2	1	1	0	0	0	0	0	0	0	0	0	0	0	0	1	8
416.02490234375	0.100005395679091	852019	379	14	stim14_sf2_pattern2_cont2_shape1.png	2	35	0	528.867933126421	528.9679385221	0.100005395679091	stim14_sf2_pattern2_cont2_shape1.png	2	2	2	1	1	4	0	0	0	0	0	0	0	0	0	0	0	0	1	8
416.52490234375	0.0999977713495355	853043	380	0	stim00_sf1_pattern1_cont1_shape1.png	2	36	0	529.367929900743	529.467927672093	0.0999977713495355	stim00_sf1_pattern1_cont1_shape1.png	1	1	1	1	1	1	0	0	0	0	0	0	0	0	0	0	0	0	1	8
417.02490234375	0.100006275409669	854067	381	1	stim01_sf1_pattern1_cont1_shape2.png	2	37	0	529.867907320998	529.967913596408	0.100006275409669	stim01_sf1_pattern1_cont1_shape2.png	1	1	1	2	1	1	0	0	0	0	0	0	0	0	0	0	0	0	1	8
417.52490234375	0.100001290270939	855091	382	7	stim07_sf1_pattern2_cont2_shape2.png	2	38	0	530.367897937208	530.467899227479	0.100001290270939	stim07_sf1_pattern2_cont2_shape2.png	1	2	2	2	1	2	0	0	0	0	0	0	0	0	0	0	0	0	1	8
418.02490234375	0.100003049732095	856115	383	11	stim11_sf2_pattern1_cont2_shape2.png	2	39	0	530.867880342602	530.967883392334	0.100003049732095	stim11_sf2_pattern1_cont2_shape2.png	2	1	2	2	1	4	0	0	0	0	0	0	0	0	0	0	0	0	1	8
418.52490234375	0.100008914600039	857139	384	3	stim03_sf1_pattern1_cont2_shape2.png	2	40	0	531.367858935831	531.467867850432	0.100008914600039	stim03_sf1_pattern1_cont2_shape2.png	1	1	2	2	1	2	0	0	0	0	0	0	0	0	0	0	0	0	1	8
419.02490234375	0.100009794330617	858163	385	5	stim05_sf1_pattern2_cont1_shape2.png	2	41	0	531.867849258798	531.967859053128	0.100009794330617	stim05_sf1_pattern2_cont1_shape2.png	1	2	1	2	1	1	0	0	0	0	0	0	0	0	0	0	0	0	1	8
419.52490234375	0.0999980645933647	859187	386	13	stim13_sf2_pattern2_cont1_shape2.png	2	42	0	532.367850138528	532.467848203121	0.0999980645933647	stim13_sf2_pattern2_cont1_shape2.png	2	2	1	2	1	3	0	0	0	0	0	0	0	0	0	0	0	0	1	8
420.02490234375	0.0999734321444521	860211	387	6	stim06_sf1_pattern2_cont2_shape1.png	2	43	0	532.867824626349	532.967798058494	0.0999734321444521	stim06_sf1_pattern2_cont2_shape1.png	1	2	2	1	1	2	0	0	0	0	0	0	0	0	0	0	0	0	1	8
420.52490234375	0.0999986510805684	861235	388	2	stim02_sf1_pattern1_cont2_shape1.png	2	44	0	533.36781788175	533.467816532831	0.0999986510805684	stim02_sf1_pattern1_cont2_shape1.png	1	1	2	1	1	2	0	0	0	0	0	0	0	0	0	0	0	0	1	8
421.02490234375	0.0999968916198668	862259	389	14	stim14_sf2_pattern2_cont2_shape1.png	2	45	0	533.867802926335	533.967799817955	0.0999968916198668	stim14_sf2_pattern2_cont2_shape1.png	2	2	2	1	1	4	0	0	0	0	0	0	0	0	0	0	0	0	1	8
421.52490234375	0.100008034869916	863283	390	8	stim08_sf2_pattern1_cont1_shape1.png	2	46	0	534.36779735471	534.46780538958	0.100008034869916	stim08_sf2_pattern1_cont1_shape1.png	2	1	1	1	1	3	0	0	0	0	0	0	0	0	0	0	0	0	1	8
422.02490234375	0.100046449760157	864307	391	9	stim09_sf2_pattern1_cont1_shape2.png	2	47	0	534.867732841154	534.967779290914	0.100046449760157	stim09_sf2_pattern1_cont1_shape2.png	2	1	1	2	1	3	0	0	0	0	0	0	0	0	0	0	0	0	1	8
422.52490234375	0.099994838915336	865331	392	10	stim10_sf2_pattern1_cont2_shape1.png	2	48	0	535.367746037108	535.467740876024	0.099994838915336	stim10_sf2_pattern1_cont2_shape1.png	2	1	2	1	1	4	0	0	0	0	0	0	0	0	0	0	0	0	1	8
423.02490234375	0.100011260547944	866355	393	15	stim15_sf2_pattern2_cont2_shape2.png	2	49	0	535.867716419521	535.967727680069	0.100011260547944	stim15_sf2_pattern2_cont2_shape2.png	2	2	2	2	1	4	0	0	0	0	0	0	0	0	0	0	0	0	1	8
423.52490234375	0.0999863348561121	867379	394	12	stim12_sf2_pattern2_cont1_shape1.png	2	50	0	536.367747210082	536.467733544938	0.0999863348561121	stim12_sf2_pattern2_cont1_shape1.png	2	2	1	1	1	3	0	0	0	0	0	0	0	0	0	0	0	0	1	8
424.02490234375	0.100016538929594	868403	395	4	stim04_sf1_pattern2_cont1_shape1.png	2	51	0	536.867696772211	536.96771331114	0.100016538929594	stim04_sf1_pattern2_cont1_shape1.png	1	2	1	1	1	1	0	0	0	0	0	0	0	0	0	0	0	0	1	8
424.52490234375	0.100003342975469	869427	396	2	stim02_sf1_pattern1_cont2_shape1.png	2	52	0	537.367691493829	537.467694836804	0.100003342975469	stim02_sf1_pattern1_cont2_shape1.png	1	1	2	1	1	2	0	0	0	0	0	0	0	0	0	0	0	0	1	8
425.02490234375	0.100019178120419	870451	397	9	stim09_sf2_pattern1_cont1_shape2.png	2	53	0	537.867676831657	537.967696009778	0.100019178120419	stim09_sf2_pattern1_cont1_shape2.png	2	1	1	2	1	3	0	0	0	0	0	0	0	0	0	0	0	0	1	8
425.52490234375	0.0999936659418381	871475	398	12	stim12_sf2_pattern2_cont1_shape1.png	2	54	0	538.367673312736	538.467666978678	0.0999936659418381	stim12_sf2_pattern2_cont1_shape1.png	2	2	1	1	1	3	0	0	0	0	0	0	0	0	0	0	0	0	1	8
426.02490234375	0.0999839889086616	872499	399	14	stim14_sf2_pattern2_cont2_shape1.png	2	55	0	538.86766774111	538.967651730019	0.0999839889086616	stim14_sf2_pattern2_cont2_shape1.png	2	2	2	1	1	4	0	0	0	0	0	0	0	0	0	0	0	0	1	8
426.52490234375	0.099990147020435	873523	400	1	stim01_sf1_pattern1_cont1_shape2.png	2	56	0	539.367677124901	539.467667271921	0.099990147020435	stim01_sf1_pattern1_cont1_shape2.png	1	1	1	2	1	1	0	0	0	0	0	0	0	0	0	0	0	0	1	8
427.02490234375	0.0999423483403916	874547	401	6	stim06_sf1_pattern2_cont2_shape1.png	2	57	0	539.867650146504	539.967592494845	0.0999423483403916	stim06_sf1_pattern2_cont2_shape1.png	1	2	2	1	1	2	0	0	0	0	0	0	0	0	0	0	0	0	1	8
427.52490234375	0.0999957186459142	875571	402	15	stim15_sf2_pattern2_cont2_shape2.png	2	58	0	540.367634604602	540.467630323248	0.0999957186459142	stim15_sf2_pattern2_cont2_shape2.png	2	2	2	2	1	4	0	0	0	0	0	0	0	0	0	0	0	0	1	8
428.02490234375	0.100006568653043	876595	403	8	stim08_sf2_pattern1_cont1_shape1.png	2	59	0	540.86760967891	540.967616247563	0.100006568653043	stim08_sf2_pattern1_cont1_shape1.png	2	1	1	1	1	3	0	0	0	0	0	0	0	0	0	0	0	0	1	8
428.52490234375	0.0999825226913345	877619	404	7	stim07_sf1_pattern2_cont2_shape2.png	2	60	0	541.367619649187	541.467602171878	0.0999825226913345	stim07_sf1_pattern2_cont2_shape2.png	1	2	2	2	1	2	0	0	0	0	0	0	0	0	0	0	0	0	1	8
429.02490234375	0.10001331325202	878643	405	3	stim03_sf1_pattern1_cont2_shape2.png	2	61	0	541.867575955915	541.967589269167	0.10001331325202	stim03_sf1_pattern1_cont2_shape2.png	1	1	2	2	1	2	0	0	0	0	0	0	0	0	0	0	0	0	1	8
429.5244140625	0.099994838915336	879666	406	0	stim00_sf1_pattern1_cont1_shape1.png	2	62	0	542.367580061323	542.467574900239	0.099994838915336	stim00_sf1_pattern1_cont1_shape1.png	1	1	1	1	1	1	0	0	0	0	0	0	0	0	0	0	0	0	1	8
430.0244140625	0.100001583514313	880690	407	5	stim05_sf1_pattern2_cont1_shape2.png	2	63	0	542.867558654552	542.967560238067	0.100001583514313	stim05_sf1_pattern2_cont1_shape2.png	1	2	1	2	1	1	0	0	0	0	0	0	0	0	0	0	0	0	1	8
430.5244140625	0.0999939591847578	881714	408	11	stim11_sf2_pattern1_cont2_shape2.png	2	64	0	543.367554255901	543.467548215086	0.0999939591847578	stim11_sf2_pattern1_cont2_shape2.png	2	1	2	2	1	4	0	0	0	0	0	0	0	0	0	0	0	0	1	8
431.0244140625	0.100005395679091	882738	409	10	stim10_sf2_pattern1_cont2_shape1.png	2	65	0	543.867530796426	543.967536192105	0.100005395679091	stim10_sf2_pattern1_cont2_shape1.png	2	1	2	1	1	4	0	0	0	0	0	0	0	0	0	0	0	0	1	8
431.5244140625	0.0999704997102526	883762	410	13	stim13_sf2_pattern2_cont1_shape2.png	2	66	0	544.367526691018	544.467497190728	0.0999704997102526	stim13_sf2_pattern2_cont1_shape2.png	2	2	1	2	1	3	0	0	0	0	0	0	0	0	0	0	0	0	1	8
432.0244140625	0.100010380817821	884786	411	4	stim04_sf1_pattern2_cont1_shape1.png	2	67	0	544.867497366674	544.967507747492	0.100010380817821	stim04_sf1_pattern2_cont1_shape1.png	1	2	1	1	1	1	0	0	0	0	0	0	0	0	0	0	0	0	1	8
432.5244140625	0.0999587699725453	885810	412	3	stim03_sf1_pattern1_cont2_shape2.png	2	68	0	545.367502938299	545.467461708272	0.0999587699725453	stim03_sf1_pattern1_cont2_shape2.png	1	1	2	2	1	2	0	0	0	0	0	0	0	0	0	0	0	0	1	8
433.0244140625	0.100000410540815	886834	413	10	stim10_sf2_pattern1_cont2_shape1.png	2	69	0	545.867470974765	545.967471385306	0.100000410540815	stim10_sf2_pattern1_cont2_shape1.png	2	1	2	1	1	4	0	0	0	0	0	0	0	0	0	0	0	0	1	8
433.5244140625	0.0999992375673173	887858	414	6	stim06_sf1_pattern2_cont2_shape1.png	2	70	0	546.367469801791	546.467469039358	0.0999992375673173	stim06_sf1_pattern2_cont2_shape1.png	1	2	2	1	1	2	0	0	0	0	0	0	0	0	0	0	0	0	1	8
434.0244140625	0.0999945456719615	888882	415	11	stim11_sf2_pattern1_cont2_shape2.png	2	71	0	546.867443116638	546.96743766231	0.0999945456719615	stim11_sf2_pattern1_cont2_shape2.png	2	1	2	2	1	4	0	0	0	0	0	0	0	0	0	0	0	0	1	8
434.5244140625	0.0999951321591652	889906	416	13	stim13_sf2_pattern2_cont1_shape2.png	2	72	0	547.367444289612	547.467439421771	0.0999951321591652	stim13_sf2_pattern2_cont1_shape2.png	2	2	1	2	1	3	0	0	0	0	0	0	0	0	0	0	0	0	1	8
435.0244140625	0.100008621356665	890930	417	9	stim09_sf2_pattern1_cont1_shape2.png	2	73	0	547.867421416624	547.967430037981	0.100008621356665	stim09_sf2_pattern1_cont1_shape2.png	2	1	1	2	1	3	0	0	0	0	0	0	0	0	0	0	0	0	1	8
435.5244140625	0.100002756488266	891954	418	2	stim02_sf1_pattern1_cont2_shape1.png	2	74	0	548.367415258512	548.467418015	0.100002756488266	stim02_sf1_pattern1_cont2_shape1.png	1	1	2	1	1	2	0	0	0	0	0	0	0	0	0	0	0	0	1	8
436.0244140625	0.100002170001517	892978	419	1	stim01_sf1_pattern1_cont1_shape2.png	2	75	0	548.867383294977	548.967385464979	0.100002170001517	stim01_sf1_pattern1_cont1_shape2.png	1	1	1	2	1	1	0	0	0	0	0	0	0	0	0	0	0	0	1	8
436.5244140625	0.0999772443096845	894002	420	0	stim00_sf1_pattern1_cont1_shape1.png	2	76	0	549.367375963891	549.467353208201	0.0999772443096845	stim00_sf1_pattern1_cont1_shape1.png	1	1	1	1	1	1	0	0	0	0	0	0	0	0	0	0	0	0	1	8
437.0244140625	0.0999866280990318	895026	421	7	stim07_sf1_pattern2_cont2_shape2.png	2	77	0	549.867341947653	549.967328575752	0.0999866280990318	stim07_sf1_pattern2_cont2_shape2.png	1	2	2	2	1	2	0	0	0	0	0	0	0	0	0	0	0	0	1	8
437.5244140625	0.0999948389157908	896050	422	12	stim12_sf2_pattern2_cont1_shape1.png	2	78	0	550.367320247638	550.467315086554	0.0999948389157908	stim12_sf2_pattern2_cont1_shape1.png	2	2	1	1	1	3	0	0	0	0	0	0	0	0	0	0	0	0	1	8
438.0244140625	0.100006275409669	897074	423	15	stim15_sf2_pattern2_cont2_shape2.png	2	79	0	550.867306171953	550.967312447363	0.100006275409669	stim15_sf2_pattern2_cont2_shape2.png	2	2	2	2	1	4	0	0	0	0	0	0	0	0	0	0	0	0	1	8
438.5244140625	0.0999986510801136	898098	424	5	stim05_sf1_pattern2_cont1_shape2.png	2	80	0	551.367290630051	551.467289281131	0.0999986510801136	stim05_sf1_pattern2_cont1_shape2.png	1	2	1	2	1	1	0	0	0	0	0	0	0	0	0	0	0	0	1	8
439.0244140625	0.100013020008646	899122	425	8	stim08_sf2_pattern1_cont1_shape1.png	2	81	0	551.867269516524	551.967282536532	0.100013020008646	stim08_sf2_pattern1_cont1_shape1.png	2	1	1	1	1	3	0	0	0	0	0	0	0	0	0	0	0	0	1	8
439.5244140625	0.100000410540815	900146	426	14	stim14_sf2_pattern2_cont2_shape1.png	2	82	0	552.367294148972	552.467294559513	0.100000410540815	stim14_sf2_pattern2_cont2_shape1.png	2	2	2	1	1	4	0	0	0	0	0	0	0	0	0	0	0	0	1	8
440.0244140625	0.0999813497178366	901170	427	4	stim04_sf1_pattern2_cont1_shape1.png	2	83	0	552.867285938156	552.967267287874	0.0999813497178366	stim04_sf1_pattern2_cont1_shape1.png	1	2	1	1	1	1	0	0	0	0	0	0	0	0	0	0	0	0	1	8
440.5244140625	0.0999989443239429	902194	428	0	stim00_sf1_pattern1_cont1_shape1.png	2	84	0	553.367264238142	553.467263182466	0.0999989443239429	stim00_sf1_pattern1_cont1_shape1.png	1	1	1	1	1	1	0	0	0	0	0	0	0	0	0	0	0	0	1	8
441.0244140625	0.0999919064811365	903218	429	1	stim01_sf1_pattern1_cont1_shape2.png	2	85	0	553.867260425977	553.967252332458	0.0999919064811365	stim01_sf1_pattern1_cont1_shape2.png	1	1	1	2	1	1	0	0	0	0	0	0	0	0	0	0	0	0	1	8
441.5244140625	0.100019764607623	904242	430	14	stim14_sf2_pattern2_cont2_shape1.png	2	86	0	554.367244297588	554.467264062196	0.100019764607623	stim14_sf2_pattern2_cont2_shape1.png	2	2	2	1	1	4	0	0	0	0	0	0	0	0	0	0	0	0	1	8
442.0244140625	0.0999986510801136	905266	431	4	stim04_sf1_pattern2_cont1_shape1.png	2	87	0	554.867244884075	554.967243535155	0.0999986510801136	stim04_sf1_pattern2_cont1_shape1.png	1	2	1	1	1	1	0	0	0	0	0	0	0	0	0	0	0	0	1	8
442.5244140625	0.0999669807888495	906290	432	8	stim08_sf2_pattern1_cont1_shape1.png	2	88	0	555.367259253003	555.467226233792	0.0999669807888495	stim08_sf2_pattern1_cont1_shape1.png	2	1	1	1	1	3	0	0	0	0	0	0	0	0	0	0	0	0	1	8
443.0244140625	0.100001583514313	907314	433	10	stim10_sf2_pattern1_cont2_shape1.png	2	89	0	555.867207642159	555.967209225673	0.100001583514313	stim10_sf2_pattern1_cont2_shape1.png	2	1	2	1	1	4	0	0	0	0	0	0	0	0	0	0	0	0	1	8
443.5244140625	0.100003929462218	908338	434	5	stim05_sf1_pattern2_cont1_shape2.png	2	90	0	556.367206469185	556.467210398647	0.100003929462218	stim05_sf1_pattern2_cont1_shape2.png	1	2	1	2	1	1	0	0	0	0	0	0	0	0	0	0	0	0	1	8
444.0244140625	0.0999945456724163	909362	435	7	stim07_sf1_pattern2_cont2_shape2.png	2	91	0	556.867189461065	556.967184006738	0.0999945456724163	stim07_sf1_pattern2_cont2_shape2.png	1	2	2	2	1	2	0	0	0	0	0	0	0	0	0	0	0	0	1	8
444.5244140625	0.100004222705593	910386	436	13	stim13_sf2_pattern2_cont1_shape2.png	2	92	0	557.367159256991	557.467163479697	0.100004222705593	stim13_sf2_pattern2_cont1_shape2.png	2	2	1	2	1	3	0	0	0	0	0	0	0	0	0	0	0	0	1	8
445.0244140625	0.100016832173424	911410	437	6	stim06_sf1_pattern2_cont2_shape1.png	2	93	0	557.867124654266	557.967141486439	0.100016832173424	stim06_sf1_pattern2_cont2_shape1.png	1	2	2	1	1	2	0	0	0	0	0	0	0	0	0	0	0	0	1	8
445.5244140625	0.0999769510658552	912434	438	15	stim15_sf2_pattern2_cont2_shape2.png	2	94	0	558.367151339419	558.467128290485	0.0999769510658552	stim15_sf2_pattern2_cont2_shape2.png	2	2	2	2	1	4	0	0	0	0	0	0	0	0	0	0	0	0	1	8
446.0244140625	0.100010380817821	913458	439	12	stim12_sf2_pattern2_cont1_shape1.png	2	95	0	558.867123774536	558.967134155354	0.100010380817821	stim12_sf2_pattern2_cont1_shape1.png	2	2	1	1	1	3	0	0	0	0	0	0	0	0	0	0	0	0	1	8
446.5244140625	0.0999992375673173	914482	440	9	stim09_sf2_pattern1_cont1_shape2.png	2	96	0	559.367122308318	559.467121545886	0.0999992375673173	stim09_sf2_pattern1_cont1_shape2.png	2	1	1	2	1	3	0	0	0	0	0	0	0	0	0	0	0	0	1	8
447.02392578125	0.100009794331072	915505	441	3	stim03_sf1_pattern1_cont2_shape2.png	2	97	0	559.867096502896	559.967106297227	0.100009794331072	stim03_sf1_pattern1_cont2_shape2.png	1	1	2	2	1	2	0	0	0	0	0	0	0	0	0	0	0	0	1	8
447.52392578125	0.0999165429179811	916529	442	2	stim02_sf1_pattern1_cont2_shape1.png	2	98	0	560.36711820291	560.467034745828	0.0999165429179811	stim02_sf1_pattern1_cont2_shape1.png	1	1	2	1	1	2	0	0	0	0	0	0	0	0	0	0	0	0	1	8
448.02392578125	0.0999889740464823	917553	443	11	stim11_sf2_pattern1_cont2_shape2.png	2	99	0	560.8670695245	560.967058498547	0.0999889740464823	stim11_sf2_pattern1_cont2_shape2.png	2	1	2	2	1	4	0	0	0	0	0	0	0	0	0	0	0	0	1	8
448.52392578125	0.0999986510801136	918577	444	13	stim13_sf2_pattern2_cont1_shape2.png	2	100	0	561.367068644769	561.46706729585	0.0999986510801136	stim13_sf2_pattern2_cont1_shape2.png	2	2	1	2	1	3	0	0	0	0	0	0	0	0	0	0	0	0	1	8
449.02392578125	0.0999960118892886	919601	445	9	stim09_sf2_pattern1_cont1_shape2.png	2	101	0	561.867057501519	561.967053513408	0.0999960118892886	stim09_sf2_pattern1_cont1_shape2.png	2	1	1	2	1	3	0	0	0	0	0	0	0	0	0	0	0	0	1	8
449.52392578125	0.0999578902424219	920625	446	14	stim14_sf2_pattern2_cont2_shape1.png	2	102	0	562.367037854209	562.466995744451	0.0999578902424219	stim14_sf2_pattern2_cont2_shape1.png	2	2	2	1	1	4	0	0	0	0	0	0	0	0	0	0	0	0	1	8
450.02392578125	0.100006861896418	921649	447	1	stim01_sf1_pattern1_cont1_shape2.png	2	103	0	562.867015567707	562.967022429604	0.100006861896418	stim01_sf1_pattern1_cont1_shape2.png	1	1	1	2	1	1	0	0	0	0	0	0	0	0	0	0	0	0	1	8
450.52392578125	0.0999945456719615	922673	448	11	stim11_sf2_pattern1_cont2_shape2.png	2	104	0	563.367017913655	563.467012459327	0.0999945456719615	stim11_sf2_pattern1_cont2_shape2.png	2	1	2	2	1	4	0	0	0	0	0	0	0	0	0	0	0	0	1	8
451.02392578125	0.099986921342861	923697	449	5	stim05_sf1_pattern2_cont1_shape2.png	2	105	0	563.866991228502	563.966978149845	0.099986921342861	stim05_sf1_pattern2_cont1_shape2.png	1	2	1	2	1	1	0	0	0	0	0	0	0	0	0	0	0	0	1	8
451.52392578125	0.0999924929678855	924721	450	8	stim08_sf2_pattern1_cont1_shape1.png	2	106	0	564.36699533391	564.466987826878	0.0999924929678855	stim08_sf2_pattern1_cont1_shape1.png	2	1	1	1	1	3	0	0	0	0	0	0	0	0	0	0	0	0	1	8
