onset	duration	onsetsample	eventnumber	stimnumber	stimname	blocknumber	trialnumber	istarget	time_stimon	time_stimoff	stimdur	stimfilename	spatial_freq	pattern	contrast	shape	is_fast_stream	category	ppt_1_response	ppt_1_keypressed	ppt_1_rt	ppt_1_correct	ppt_2_response	ppt_2_keypressed	ppt_2_rt	ppt_2_correct	button1	button2	button3	button4	task_part_number	subjectnr
27.67431640625	0.0999889445956796	56677	0	11	stim11_sf2_pattern1_cont2_shape2.png	0	0	0	271.552352909608	271.652341854204	0.0999889445956796	stim11_sf2_pattern1_cont2_shape2.png	2	1	2	2	1	1	0	0	0	0	0	0	0	0	0	0	0	0	1	25
28.1826171875	0.099997448753129	57718	1	1	stim01_sf1_pattern1_cont1_shape2.png	0	1	0	272.06071293573	272.160710384484	0.099997448753129	stim01_sf1_pattern1_cont1_shape2.png	1	1	1	2	1	1	0	0	0	0	0	0	0	0	0	0	0	0	1	25
28.6826171875	0.105998451070263	58742	2	14	stim14_sf2_pattern2_cont2_shape1.png	0	2	0	272.579662689946	272.685661141017	0.105998451070263	stim14_sf2_pattern2_cont2_shape1.png	2	2	2	1	1	2	0	0	0	0	0	0	0	0	0	0	0	0	1	25
29.20751953125	0.100010938103878	59817	3	3	stim03_sf1_pattern1_cont2_shape2.png	0	3	0	273.085680847202	273.185691785306	0.100010938103878	stim03_sf1_pattern1_cont2_shape2.png	1	1	2	2	1	1	0	0	0	0	0	0	0	0	0	0	0	0	1	25
29.70751953125	0.0999634321251506	60841	4	12	stim12_sf2_pattern2_cont1_shape1.png	0	4	0	273.585699175126	273.685662607251	0.0999634321251506	stim12_sf2_pattern2_cont1_shape1.png	2	2	1	1	1	2	0	0	0	0	0	0	0	0	0	0	0	0	1	25
30.20751953125	0.0999992082324752	61865	5	10	stim10_sf2_pattern1_cont2_shape1.png	0	5	0	274.085683193176	274.185682401408	0.0999992082324752	stim10_sf2_pattern1_cont2_shape1.png	2	1	2	1	1	4	0	0	0	0	0	0	0	0	0	0	0	0	1	25
30.70751953125	0.0999874783610721	62889	6	15	stim15_sf2_pattern2_cont2_shape2.png	0	6	0	274.585662812524	274.685650290885	0.0999874783610721	stim15_sf2_pattern2_cont2_shape2.png	2	2	2	2	1	3	0	0	0	0	0	0	0	0	0	0	0	0	1	25
31.20751953125	0.0999344006922911	63913	7	7	stim07_sf1_pattern2_cont2_shape2.png	0	7	0	275.085685832397	275.185620233089	0.0999344006922911	stim07_sf1_pattern2_cont2_shape2.png	1	2	2	2	1	3	0	0	0	0	0	0	0	0	0	0	0	0	1	25
31.70751953125	0.0999821999193955	64937	8	5	stim05_sf1_pattern2_cont1_shape2.png	0	8	0	275.585636127065	275.685618326985	0.0999821999193955	stim05_sf1_pattern2_cont1_shape2.png	1	2	1	2	1	3	0	0	0	0	0	0	0	0	0	0	0	0	1	25
32.20751953125	0.100018562521655	65961	9	13	stim13_sf2_pattern2_cont1_shape2.png	0	9	0	276.085604016542	276.185622579063	0.100018562521655	stim13_sf2_pattern2_cont1_shape2.png	2	2	1	2	1	3	0	0	0	0	0	0	0	0	0	0	0	0	1	25
32.70751953125	0.0999924635580101	66985	10	2	stim02_sf1_pattern1_cont2_shape1.png	0	10	0	276.58563202161	276.685624485168	0.0999924635580101	stim02_sf1_pattern1_cont2_shape1.png	1	1	2	1	1	4	0	0	0	0	0	0	0	0	0	0	0	0	1	25
33.20751953125	0.0999775079708343	68009	11	6	stim06_sf1_pattern2_cont2_shape1.png	0	11	0	277.085609881478	277.185587389449	0.0999775079708343	stim06_sf1_pattern2_cont2_shape1.png	1	2	2	1	1	2	0	0	0	0	0	0	0	0	0	0	0	0	1	25
33.70751953125	0.0999863053748413	69033	12	0	stim00_sf1_pattern1_cont1_shape1.png	0	12	0	277.585608561867	277.685594867242	0.0999863053748413	stim00_sf1_pattern1_cont1_shape1.png	1	1	1	1	1	4	0	0	0	0	0	0	0	0	0	0	0	0	1	25
34.20751953125	0.100000087973967	70057	13	4	stim04_sf1_pattern2_cont1_shape1.png	0	13	0	278.085605776023	278.185605863997	0.100000087973967	stim04_sf1_pattern2_cont1_shape1.png	1	2	1	1	1	2	0	0	0	0	0	0	0	0	0	0	0	0	1	25
34.70751953125	0.0999860121282836	71081	14	8	stim08_sf2_pattern1_cont1_shape1.png	0	14	0	278.585603869918	278.685589882047	0.0999860121282836	stim08_sf2_pattern1_cont1_shape1.png	2	1	1	1	1	4	0	0	0	0	0	0	0	0	0	0	0	0	1	25
35.20751953125	0.100004779922529	72105	15	9	stim09_sf2_pattern1_cont1_shape2.png	0	15	0	279.085597271865	279.185602051788	0.100004779922529	stim09_sf2_pattern1_cont1_shape2.png	2	1	1	2	1	1	0	0	0	0	0	0	0	0	0	0	0	0	1	25
35.70751953125	0.0999537549814704	73129	16	8	stim08_sf2_pattern1_cont1_shape1.png	0	16	0	279.585625276934	279.685579031915	0.0999537549814704	stim08_sf2_pattern1_cont1_shape1.png	2	1	1	1	1	4	0	0	0	0	0	0	0	0	0	0	0	0	1	25
36.20751953125	0.0999983284928021	74153	17	3	stim03_sf1_pattern1_cont2_shape2.png	0	17	0	280.085595219138	280.185593547631	0.0999983284928021	stim03_sf1_pattern1_cont2_shape2.png	1	1	2	2	1	1	0	0	0	0	0	0	0	0	0	0	0	0	1	25
36.70751953125	0.100018562521655	75177	18	4	stim04_sf1_pattern2_cont1_shape1.png	0	18	0	280.585564574849	280.68558313737	0.100018562521655	stim04_sf1_pattern2_cont1_shape1.png	1	2	1	1	1	2	0	0	0	0	0	0	0	0	0	0	0	0	1	25
37.20751953125	0.0999930500511255	76201	19	11	stim11_sf2_pattern1_cont2_shape2.png	0	19	0	281.085574691862	281.185567741913	0.0999930500511255	stim11_sf2_pattern1_cont2_shape2.png	2	1	2	2	1	1	0	0	0	0	0	0	0	0	0	0	0	0	1	25
37.70751953125	0.0999519955003052	77225	20	1	stim01_sf1_pattern1_cont1_shape2.png	0	20	0	281.58557630472	281.685528300221	0.0999519955003052	stim01_sf1_pattern1_cont1_shape2.png	1	1	1	2	1	1	0	0	0	0	0	0	0	0	0	0	0	0	1	25
38.20751953125	0.0999575671885395	78249	21	13	stim13_sf2_pattern2_cont1_shape2.png	0	21	0	282.085536569781	282.185494136969	0.0999575671885395	stim13_sf2_pattern2_cont1_shape2.png	2	2	1	2	1	3	0	0	0	0	0	0	0	0	0	0	0	0	1	25
38.70751953125	0.100006246155317	79273	22	14	stim14_sf2_pattern2_cont2_shape1.png	0	22	0	282.585548153029	282.685554399184	0.100006246155317	stim14_sf2_pattern2_cont2_shape1.png	2	2	2	1	1	2	0	0	0	0	0	0	0	0	0	0	0	0	1	25
39.20703125	0.100000381220525	80296	23	9	stim09_sf2_pattern1_cont1_shape2.png	0	23	0	283.085539502248	283.185539883469	0.100000381220525	stim09_sf2_pattern1_cont1_shape2.png	2	1	1	2	1	1	0	0	0	0	0	0	0	0	0	0	0	0	1	25
39.70703125	0.100005073169086	81320	24	6	stim06_sf1_pattern2_cont2_shape1.png	0	24	0	283.585530264974	283.685535338143	0.100005073169086	stim06_sf1_pattern2_cont2_shape1.png	1	2	2	1	1	2	0	0	0	0	0	0	0	0	0	0	0	0	1	25
40.20703125	0.0999505292656977	82344	25	12	stim12_sf2_pattern2_cont1_shape1.png	0	25	0	284.08552835887	284.185478888136	0.0999505292656977	stim12_sf2_pattern2_cont1_shape1.png	2	2	1	1	1	2	0	0	0	0	0	0	0	0	0	0	0	0	1	25
40.70703125	0.100006246157136	83368	26	7	stim07_sf1_pattern2_cont2_shape2.png	0	26	0	284.585492729384	284.685498975541	0.100006246157136	stim07_sf1_pattern2_cont2_shape2.png	1	2	2	2	1	3	0	0	0	0	0	0	0	0	0	0	0	0	1	25
41.20703125	0.0999965690134559	84392	27	5	stim05_sf1_pattern2_cont1_shape2.png	0	27	0	285.085510177569	285.185506746582	0.0999965690134559	stim05_sf1_pattern2_cont1_shape2.png	1	2	1	2	1	3	0	0	0	0	0	0	0	0	0	0	0	0	1	25
41.70703125	0.0999798539451149	85416	28	0	stim00_sf1_pattern1_cont1_shape1.png	0	28	0	285.585503286269	285.685483140214	0.0999798539451149	stim00_sf1_pattern1_cont1_shape1.png	1	1	1	1	1	4	0	0	0	0	0	0	0	0	0	0	0	0	1	25
42.20703125	0.100018562523474	86440	29	10	stim10_sf2_pattern1_cont2_shape1.png	0	29	0	286.085472055485	286.185490618009	0.100018562523474	stim10_sf2_pattern1_cont2_shape1.png	2	1	2	1	1	4	0	0	0	0	0	0	0	0	0	0	0	0	1	25
42.70703125	0.0999892378422373	87464	30	15	stim15_sf2_pattern2_cont2_shape2.png	0	30	0	286.585478067045	286.685467304887	0.0999892378422373	stim15_sf2_pattern2_cont2_shape2.png	2	2	2	2	1	3	0	0	0	0	0	0	0	0	0	0	0	0	1	25
43.20703125	0.0999980352462444	88488	31	2	stim02_sf1_pattern1_cont2_shape1.png	0	31	0	287.08547909341	287.185477128656	0.0999980352462444	stim02_sf1_pattern1_cont2_shape1.png	1	1	2	1	1	4	0	0	0	0	0	0	0	0	0	0	0	0	1	25
43.70703125	0.0999848391420528	89512	32	3	stim03_sf1_pattern1_cont2_shape2.png	0	32	0	287.585469562888	287.68545440203	0.0999848391420528	stim03_sf1_pattern1_cont2_shape2.png	1	1	2	2	1	1	0	0	0	0	0	0	0	0	0	0	0	0	1	25
44.20703125	0.0999997947274096	90536	33	0	stim00_sf1_pattern1_cont1_shape1.png	0	33	0	288.08546061886	288.185460413588	0.0999997947274096	stim00_sf1_pattern1_cont1_shape1.png	1	1	1	1	1	4	0	0	0	0	0	0	0	0	0	0	0	0	1	25
44.70703125	0.0999558077091933	91560	34	8	stim08_sf2_pattern1_cont1_shape1.png	0	34	0	288.585453141068	288.685408948777	0.0999558077091933	stim08_sf2_pattern1_cont1_shape1.png	2	1	1	1	1	4	0	0	0	0	0	0	0	0	0	0	0	0	1	25
45.20703125	0.0999769214777189	92584	35	9	stim09_sf2_pattern1_cont1_shape2.png	0	35	0	289.085445663275	289.185422584753	0.0999769214777189	stim09_sf2_pattern1_cont1_shape2.png	2	1	1	2	1	1	0	0	0	0	0	0	0	0	0	0	0	0	1	25
45.70703125	0.100026773432546	93608	36	12	stim12_sf2_pattern2_cont1_shape1.png	0	36	0	289.585393905216	289.685420678648	0.100026773432546	stim12_sf2_pattern2_cont1_shape1.png	2	2	1	1	1	2	0	0	0	0	0	0	0	0	0	0	0	0	1	25
46.20703125	0.0999716430360422	94632	37	5	stim05_sf1_pattern2_cont1_shape2.png	0	37	0	290.085420737298	290.185392380334	0.0999716430360422	stim05_sf1_pattern2_cont1_shape2.png	1	2	1	2	1	3	0	0	0	0	0	0	0	0	0	0	0	0	1	25
46.70703125	0.0999863053748413	95656	38	10	stim10_sf2_pattern1_cont2_shape1.png	0	38	0	290.585402995866	290.685389301241	0.0999863053748413	stim10_sf2_pattern1_cont2_shape1.png	2	1	2	1	1	4	0	0	0	0	0	0	0	0	0	0	0	0	1	25
47.20703125	0.0999760417380458	96680	39	4	stim04_sf1_pattern2_cont1_shape1.png	0	39	0	291.085395224827	291.185371266565	0.0999760417380458	stim04_sf1_pattern2_cont1_shape1.png	1	2	1	1	1	2	0	0	0	0	0	0	0	0	0	0	0	0	1	25
47.70703125	0.099994516285733	97704	40	7	stim07_sf1_pattern2_cont2_shape2.png	0	40	0	291.58539625119	291.685390767476	0.099994516285733	stim07_sf1_pattern2_cont2_shape2.png	1	2	2	2	1	3	0	0	0	0	0	0	0	0	0	0	0	0	1	25
48.20703125	0.0999959825185215	98728	41	14	stim14_sf2_pattern2_cont2_shape1.png	0	41	0	292.085381148981	292.1853771315	0.0999959825185215	stim14_sf2_pattern2_cont2_shape1.png	2	2	2	1	1	2	0	0	0	0	0	0	0	0	0	0	0	0	1	25
48.70703125	0.0999821999193955	99752	42	2	stim02_sf1_pattern1_cont2_shape1.png	0	42	0	292.58537631041	292.685358510329	0.0999821999193955	stim02_sf1_pattern1_cont2_shape1.png	1	1	2	1	1	4	0	0	0	0	0	0	0	0	0	0	0	0	1	25
49.20703125	0.100002727194806	100776	43	11	stim11_sf2_pattern1_cont2_shape2.png	0	43	0	293.0853793895	293.185382116695	0.100002727194806	stim11_sf2_pattern1_cont2_shape2.png	2	1	2	2	1	1	0	0	0	0	0	0	0	0	0	0	0	0	1	25
49.70703125	0.0999939297907986	101800	44	1	stim01_sf1_pattern1_cont1_shape2.png	0	44	0	293.58536340755	293.685357337341	0.0999939297907986	stim01_sf1_pattern1_cont1_shape2.png	1	1	1	2	1	1	0	0	0	0	0	0	0	0	0	0	0	0	1	25
50.20703125	0.099997448753129	102824	45	13	stim13_sf2_pattern2_cont1_shape2.png	0	45	0	294.085354756769	294.185352205523	0.099997448753129	stim13_sf2_pattern2_cont1_shape2.png	2	2	1	2	1	3	0	0	0	0	0	0	0	0	0	0	0	0	1	25
50.70703125	0.0999731092688307	103848	46	6	stim06_sf1_pattern2_cont2_shape1.png	0	46	0	294.585372791447	294.685345900716	0.0999731092688307	stim06_sf1_pattern2_cont2_shape1.png	1	2	2	1	1	2	0	0	0	0	0	0	0	0	0	0	0	0	1	25
51.20703125	0.0999977419996867	104872	47	10	stim10_sf2_pattern1_cont2_shape1.png	0	47	1	295.085368246122	295.185365988122	0.0999977419996867	stim10_sf2_pattern1_cont2_shape1.png	2	1	2	1	1	4	0	0	0	0	0	0	0	0	0	0	0	0	1	25
51.70703125	0.0999361601734563	105896	48	10	stim10_sf2_pattern1_cont2_shape1.png	0	48	1	295.585352264172	295.685288424345	0.0999361601734563	stim10_sf2_pattern1_cont2_shape1.png	2	1	2	1	1	4	0	0	0	0	0	0	0	0	0	0	0	0	1	25
52.20703125	0.0999965690116369	106920	49	0	stim00_sf1_pattern1_cont1_shape1.png	0	49	2	296.085341560665	296.185338129677	0.0999965690116369	stim00_sf1_pattern1_cont1_shape1.png	1	1	1	1	1	4	0	0	0	0	0	0	0	0	0	0	0	0	1	25
52.70703125	0.0999745755034382	107944	50	12	stim12_sf2_pattern2_cont1_shape1.png	0	50	2	296.585336722092	296.685311297595	0.0999745755034382	stim12_sf2_pattern2_cont1_shape1.png	2	2	1	1	1	2	0	0	0	0	0	0	0	0	0	0	0	0	1	25
53.20703125	0.0999956892719638	108968	51	15	stim15_sf2_pattern2_cont2_shape2.png	0	51	0	297.085326605078	297.18532229435	0.0999956892719638	stim15_sf2_pattern2_cont2_shape2.png	2	2	2	2	1	3	0	0	0	0	0	0	0	0	0	0	0	0	1	25
53.70703125	0.0999810269331647	109992	52	13	stim13_sf2_pattern2_cont1_shape2.png	0	52	0	297.585312675856	297.685293702789	0.0999810269331647	stim13_sf2_pattern2_cont1_shape2.png	2	2	1	2	1	3	0	0	0	0	0	0	0	0	0	0	0	0	1	25
54.20703125	0.0999962757668982	111016	53	1	stim01_sf1_pattern1_cont1_shape2.png	0	53	0	298.085311062998	298.185307338765	0.0999962757668982	stim01_sf1_pattern1_cont1_shape2.png	1	1	1	2	1	1	0	0	0	0	0	0	0	0	0	0	0	0	1	25
54.70703125	0.0999783877123264	112040	54	2	stim02_sf1_pattern1_cont2_shape1.png	0	54	0	298.585301825724	298.685280213436	0.0999783877123264	stim02_sf1_pattern1_cont2_shape1.png	1	1	2	1	1	4	0	0	0	0	0	0	0	0	0	0	0	0	1	25
55.20703125	0.0999951027788484	113064	55	15	stim15_sf2_pattern2_cont2_shape2.png	0	55	0	299.085296987152	299.185292089931	0.0999951027788484	stim15_sf2_pattern2_cont2_shape2.png	2	2	2	2	1	3	0	0	0	0	0	0	0	0	0	0	0	0	1	25
55.70703125	0.0999780944639497	114088	56	9	stim09_sf2_pattern1_cont1_shape2.png	0	56	0	299.585286870139	299.685264964603	0.0999780944639497	stim09_sf2_pattern1_cont1_shape2.png	2	1	1	2	1	1	0	0	0	0	0	0	0	0	0	0	0	0	1	25
56.20654296875	0.0999930500511255	115111	57	11	stim11_sf2_pattern1_cont2_shape2.png	0	57	0	300.085279685592	300.185272735644	0.0999930500511255	stim11_sf2_pattern1_cont2_shape2.png	2	1	2	2	1	1	0	0	0	0	0	0	0	0	0	0	0	0	1	25
56.70654296875	0.0999751619965537	116135	58	12	stim12_sf2_pattern2_cont1_shape1.png	0	58	0	300.585271034812	300.685246196808	0.0999751619965537	stim12_sf2_pattern2_cont1_shape1.png	2	2	1	1	1	2	0	0	0	0	0	0	0	0	0	0	0	0	1	25
57.20654296875	0.0999951027788484	117159	59	0	stim00_sf1_pattern1_cont1_shape1.png	0	59	0	301.085267662473	301.185262765252	0.0999951027788484	stim00_sf1_pattern1_cont1_shape1.png	1	1	1	1	1	4	0	0	0	0	0	0	0	0	0	0	0	0	1	25
57.70654296875	0.0999769214777189	118183	60	14	stim14_sf2_pattern2_cont2_shape1.png	0	60	0	301.585256372471	301.685233293949	0.0999769214777189	stim14_sf2_pattern2_cont2_shape1.png	2	2	2	1	1	2	0	0	0	0	0	0	0	0	0	0	0	0	1	25
58.20654296875	0.100018269275097	119207	61	6	stim06_sf1_pattern2_cont2_shape1.png	0	61	0	302.08522690117	302.185245170445	0.100018269275097	stim06_sf1_pattern2_cont2_shape1.png	1	2	2	1	1	2	0	0	0	0	0	0	0	0	0	0	0	0	1	25
58.70654296875	0.0999634321251506	120231	62	3	stim03_sf1_pattern1_cont2_shape2.png	0	62	0	302.585241710132	302.685205142257	0.0999634321251506	stim03_sf1_pattern1_cont2_shape2.png	1	1	2	2	1	1	0	0	0	0	0	0	0	0	0	0	0	0	1	25
59.20654296875	0.0999904108302871	121255	63	4	stim04_sf1_pattern2_cont1_shape1.png	0	63	0	303.085241270262	303.185231681093	0.0999904108302871	stim04_sf1_pattern2_cont1_shape1.png	1	2	1	1	1	2	0	0	0	0	0	0	0	0	0	0	0	0	1	25
59.70654296875	0.0999810269331647	122279	64	7	stim07_sf1_pattern2_cont2_shape2.png	0	64	0	303.585227634287	303.68520866122	0.0999810269331647	stim07_sf1_pattern2_cont2_shape2.png	1	2	2	2	1	3	0	0	0	0	0	0	0	0	0	0	0	0	1	25
60.20654296875	0.1000299991465	123303	65	10	stim10_sf2_pattern1_cont2_shape1.png	0	65	0	304.085196110256	304.185226109403	0.1000299991465	stim10_sf2_pattern1_cont2_shape1.png	2	1	2	1	1	4	0	0	0	0	0	0	0	0	0	0	0	0	1	25
60.70654296875	0.0999490630329092	124327	66	8	stim08_sf2_pattern1_cont1_shape1.png	0	66	0	304.585213851688	304.68516291472	0.0999490630329092	stim08_sf2_pattern1_cont1_shape1.png	2	1	1	1	1	4	0	0	0	0	0	0	0	0	0	0	0	0	1	25
61.20654296875	0.100020615249377	125351	67	5	stim05_sf1_pattern2_cont1_shape2.png	0	67	0	305.085173237007	305.185193852256	0.100020615249377	stim05_sf1_pattern2_cont1_shape2.png	1	2	1	2	1	3	0	0	0	0	0	0	0	0	0	0	0	0	1	25
61.70654296875	0.0999927568045678	126375	68	11	stim11_sf2_pattern1_cont2_shape2.png	0	68	0	305.585175143111	305.685167899916	0.0999927568045678	stim11_sf2_pattern1_cont2_shape2.png	2	1	2	2	1	1	0	0	0	0	0	0	0	0	0	0	0	0	1	25
62.20654296875	0.0999995014808519	127399	69	13	stim13_sf2_pattern2_cont1_shape2.png	0	69	0	306.085145085315	306.185144586796	0.0999995014808519	stim13_sf2_pattern2_cont1_shape2.png	2	2	1	2	1	3	0	0	0	0	0	0	0	0	0	0	0	0	1	25
62.70654296875	0.099980733684788	128423	70	8	stim08_sf2_pattern1_cont1_shape1.png	0	70	0	306.585158428044	306.685139161729	0.099980733684788	stim08_sf2_pattern1_cont1_shape1.png	2	1	1	1	1	4	0	0	0	0	0	0	0	0	0	0	0	0	1	25
63.20654296875	0.0999736957619461	129447	71	0	stim00_sf1_pattern1_cont1_shape1.png	0	71	0	307.085162680123	307.185136375885	0.0999736957619461	stim00_sf1_pattern1_cont1_shape1.png	1	1	1	1	1	4	0	0	0	0	0	0	0	0	0	0	0	0	1	25
63.70654296875	0.0999739890103228	130471	72	3	stim03_sf1_pattern1_cont2_shape2.png	0	72	0	307.585152269861	307.685126258872	0.0999739890103228	stim03_sf1_pattern1_cont2_shape2.png	1	1	2	2	1	1	0	0	0	0	0	0	0	0	0	0	0	0	1	25
64.20654296875	0.0999739890103228	131495	73	6	stim06_sf1_pattern2_cont2_shape1.png	0	73	0	308.085147431289	308.1851214203	0.0999739890103228	stim06_sf1_pattern2_cont2_shape1.png	1	2	2	1	1	2	0	0	0	0	0	0	0	0	0	0	0	0	1	25
64.70654296875	0.099983666154003	132519	74	1	stim01_sf1_pattern1_cont1_shape2.png	0	74	0	308.585134381807	308.685118047961	0.099983666154003	stim01_sf1_pattern1_cont1_shape2.png	1	1	1	2	1	1	0	0	0	0	0	0	0	0	0	0	0	0	1	25
65.20654296875	0.0999543414745858	133543	75	14	stim14_sf2_pattern2_cont2_shape1.png	0	75	0	309.085174409995	309.185128751469	0.0999543414745858	stim14_sf2_pattern2_cont2_shape1.png	2	2	2	1	1	2	0	0	0	0	0	0	0	0	0	0	0	0	1	25
65.70654296875	0.099977801217392	134567	76	12	stim12_sf2_pattern2_cont1_shape1.png	0	76	0	309.585122651935	309.685100453153	0.099977801217392	stim12_sf2_pattern2_cont1_shape1.png	2	2	1	1	1	2	0	0	0	0	0	0	0	0	0	0	0	0	1	25
66.20654296875	0.100018562521655	135591	77	2	stim02_sf1_pattern1_cont2_shape1.png	0	77	0	310.085136874404	310.185155436926	0.100018562521655	stim02_sf1_pattern1_cont2_shape1.png	1	1	2	1	1	4	0	0	0	0	0	0	0	0	0	0	0	0	1	25
66.70654296875	0.0999695903083193	136615	78	4	stim04_sf1_pattern2_cont1_shape1.png	0	78	0	310.585129396612	310.68509898692	0.0999695903083193	stim04_sf1_pattern2_cont1_shape1.png	1	2	1	1	1	2	0	0	0	0	0	0	0	0	0	0	0	0	1	25
67.20654296875	0.0999965690134559	137639	79	15	stim15_sf2_pattern2_cont2_shape2.png	0	79	0	311.085111948427	311.18510851744	0.0999965690134559	stim15_sf2_pattern2_cont2_shape2.png	2	2	2	2	1	3	0	0	0	0	0	0	0	0	0	0	0	0	1	25
67.70654296875	0.0999851323886105	138663	80	5	stim05_sf1_pattern2_cont1_shape2.png	0	80	0	311.585104763881	311.685089896269	0.0999851323886105	stim05_sf1_pattern2_cont1_shape2.png	1	2	1	2	1	3	0	0	0	0	0	0	0	0	0	0	0	0	1	25
68.20654296875	0.0999962757668982	139687	81	10	stim10_sf2_pattern1_cont2_shape1.png	0	81	0	312.085109602453	312.185105878219	0.0999962757668982	stim10_sf2_pattern1_cont2_shape1.png	2	1	2	1	1	4	0	0	0	0	0	0	0	0	0	0	0	0	1	25
68.70654296875	0.0999792674519995	140711	82	7	stim07_sf1_pattern2_cont2_shape2.png	0	82	0	312.585088342061	312.685067609513	0.0999792674519995	stim07_sf1_pattern2_cont2_shape2.png	1	2	2	2	1	3	0	0	0	0	0	0	0	0	0	0	0	0	1	25
69.20654296875	0.0999995014808519	141735	83	9	stim09_sf2_pattern1_cont1_shape2.png	0	83	0	313.085082330501	313.185081831982	0.0999995014808519	stim09_sf2_pattern1_cont1_shape2.png	2	1	1	2	1	1	0	0	0	0	0	0	0	0	0	0	0	0	1	25
69.70654296875	0.100004193429413	142759	84	13	stim13_sf2_pattern2_cont1_shape2.png	0	84	0	313.58506928102	313.685073474449	0.100004193429413	stim13_sf2_pattern2_cont1_shape2.png	2	2	1	2	1	3	0	0	0	0	0	0	0	0	0	0	0	0	1	25
70.20654296875	0.0999989149859175	143783	85	3	stim03_sf1_pattern1_cont2_shape2.png	0	85	0	314.085067081669	314.185065996655	0.0999989149859175	stim03_sf1_pattern1_cont2_shape2.png	1	1	2	2	1	1	0	0	0	0	0	0	0	0	0	0	0	0	1	25
70.70654296875	0.0999783877123264	144807	86	2	stim02_sf1_pattern1_cont2_shape1.png	0	86	0	314.585056964654	314.685035352366	0.0999783877123264	stim02_sf1_pattern1_cont2_shape1.png	1	1	2	1	1	4	0	0	0	0	0	0	0	0	0	0	0	0	1	25
71.20654296875	0.0999971555065713	145831	87	11	stim11_sf2_pattern1_cont2_shape2.png	0	87	0	315.085052126082	315.185049281588	0.0999971555065713	stim11_sf2_pattern1_cont2_shape2.png	2	1	2	2	1	1	0	0	0	0	0	0	0	0	0	0	0	0	1	25
71.70654296875	0.0999739890103228	146855	88	9	stim09_sf2_pattern1_cont1_shape2.png	0	88	0	315.58504728751	315.68502127652	0.0999739890103228	stim09_sf2_pattern1_cont1_shape2.png	2	1	1	2	1	1	0	0	0	0	0	0	0	0	0	0	0	0	1	25
72.20654296875	0.0999997947274096	147879	89	12	stim12_sf2_pattern2_cont1_shape1.png	0	89	0	316.085035411015	316.185035205743	0.0999997947274096	stim12_sf2_pattern2_cont1_shape1.png	2	2	1	1	1	2	0	0	0	0	0	0	0	0	0	0	0	0	1	25
72.70654296875	0.0999625523854775	148903	90	14	stim14_sf2_pattern2_cont2_shape1.png	0	90	0	316.58503086569	316.684993418075	0.0999625523854775	stim14_sf2_pattern2_cont2_shape1.png	2	2	2	1	1	2	0	0	0	0	0	0	0	0	0	0	0	0	1	25
73.2060546875	0.0999959825185215	149926	91	6	stim06_sf1_pattern2_cont2_shape1.png	0	91	0	317.08502397439	317.185019956909	0.0999959825185215	stim06_sf1_pattern2_cont2_shape1.png	1	2	2	1	1	2	0	0	0	0	0	0	0	0	0	0	0	0	1	25
73.7060546875	0.0999857188799069	150950	92	5	stim05_sf1_pattern2_cont1_shape2.png	0	92	0	317.585013857377	317.684999576257	0.0999857188799069	stim05_sf1_pattern2_cont1_shape2.png	1	2	1	2	1	3	0	0	0	0	0	0	0	0	0	0	0	0	1	25
74.2060546875	0.100007419143367	151974	93	4	stim04_sf1_pattern2_cont1_shape1.png	0	93	0	318.084996702439	318.185004121582	0.100007419143367	stim04_sf1_pattern2_cont1_shape1.png	1	2	1	1	1	2	0	0	0	0	0	0	0	0	0	0	0	0	1	25
74.7060546875	0.0999801471916726	152998	94	7	stim07_sf1_pattern2_cont2_shape2.png	0	94	0	318.58499890179	318.684979048981	0.0999801471916726	stim07_sf1_pattern2_cont2_shape2.png	1	2	2	2	1	3	0	0	0	0	0	0	0	0	0	0	0	0	1	25
75.2060546875	0.10000096771364	154022	95	11	stim11_sf2_pattern1_cont2_shape2.png	0	95	1	319.084989371269	319.184990338983	0.10000096771364	stim11_sf2_pattern1_cont2_shape2.png	2	1	2	2	1	1	0	0	0	0	0	0	0	0	0	0	0	0	1	25
75.7060546875	0.0999956892719638	155046	96	11	stim11_sf2_pattern1_cont2_shape2.png	0	96	1	319.584963418929	319.684959108201	0.0999956892719638	stim11_sf2_pattern1_cont2_shape2.png	2	1	2	2	1	1	0	0	0	0	0	0	0	0	0	0	0	0	1	25
76.2060546875	0.0999801471916726	156070	97	10	stim10_sf2_pattern1_cont2_shape1.png	0	97	2	320.084972362956	320.184952510148	0.0999801471916726	stim10_sf2_pattern1_cont2_shape1.png	2	1	2	1	1	4	0	0	0	0	0	0	0	0	0	0	0	0	1	25
76.7060546875	0.0999537549796514	157094	98	15	stim15_sf2_pattern2_cont2_shape2.png	0	98	2	320.584979254256	320.684933009235	0.0999537549796514	stim15_sf2_pattern2_cont2_shape2.png	2	2	2	2	1	3	0	0	0	0	0	0	0	0	0	0	0	0	1	25
77.2060546875	0.0999933432995022	158118	99	10	stim10_sf2_pattern1_cont2_shape1.png	0	99	0	321.084923977234	321.184917320534	0.0999933432995022	stim10_sf2_pattern1_cont2_shape1.png	2	1	2	1	1	4	0	0	0	0	0	0	0	0	0	0	0	0	1	25
77.7060546875	0.0999971555065713	159142	100	0	stim00_sf1_pattern1_cont1_shape1.png	0	100	0	321.584932041522	321.684929197028	0.0999971555065713	stim00_sf1_pattern1_cont1_shape1.png	1	1	1	1	1	4	0	0	0	0	0	0	0	0	0	0	0	0	1	25
78.2060546875	0.10001797602672	160166	101	8	stim08_sf2_pattern1_cont1_shape1.png	0	101	0	322.084903743207	322.184921719234	0.10001797602672	stim08_sf2_pattern1_cont1_shape1.png	2	1	1	1	1	4	0	0	0	0	0	0	0	0	0	0	0	0	1	25
78.7060546875	0.100000087973967	161190	102	1	stim01_sf1_pattern1_cont1_shape2.png	0	102	0	322.584915912948	322.684916000922	0.100000087973967	stim01_sf1_pattern1_cont1_shape2.png	1	1	1	2	1	1	0	0	0	0	0	0	0	0	0	0	0	0	1	25
79.2060546875	0.100003020441363	162214	103	15	stim15_sf2_pattern2_cont2_shape2.png	0	103	0	323.084893479569	323.18489650001	0.100003020441363	stim15_sf2_pattern2_cont2_shape2.png	2	2	2	2	1	3	0	0	0	0	0	0	0	0	0	0	0	0	1	25
79.7060546875	0.0999907040750259	163238	104	7	stim07_sf1_pattern2_cont2_shape2.png	0	104	0	323.584915033209	323.684905737284	0.0999907040750259	stim07_sf1_pattern2_cont2_shape2.png	1	2	2	2	1	3	0	0	0	0	0	0	0	0	0	0	0	0	1	25
80.2060546875	0.100007125896809	164262	105	3	stim03_sf1_pattern1_cont2_shape2.png	0	105	0	324.084898171517	324.184905297414	0.100007125896809	stim03_sf1_pattern1_cont2_shape2.png	1	1	2	2	1	1	0	0	0	0	0	0	0	0	0	0	0	0	1	25
80.7060546875	0.0999907040768448	165286	106	10	stim10_sf2_pattern1_cont2_shape1.png	0	106	0	324.584897731647	324.684888435724	0.0999907040768448	stim10_sf2_pattern1_cont2_shape1.png	2	1	2	1	1	4	0	0	0	0	0	0	0	0	0	0	0	0	1	25
81.2060546875	0.100007125898628	166310	107	4	stim04_sf1_pattern2_cont1_shape1.png	0	107	0	325.084896412036	325.184903537935	0.100007125898628	stim04_sf1_pattern2_cont1_shape1.png	1	2	1	1	1	2	0	0	0	0	0	0	0	0	0	0	0	0	1	25
81.7060546875	0.0999587401765893	167334	108	6	stim06_sf1_pattern2_cont2_shape1.png	0	108	0	325.584899784375	325.684858524552	0.0999587401765893	stim06_sf1_pattern2_cont2_shape1.png	1	2	2	1	1	2	0	0	0	0	0	0	0	0	0	0	0	0	1	25
82.2060546875	0.100025600444496	168358	109	15	stim15_sf2_pattern2_cont2_shape2.png	0	109	0	326.084865621124	326.184891221568	0.100025600444496	stim15_sf2_pattern2_cont2_shape2.png	2	2	2	2	1	3	0	0	0	0	0	0	0	0	0	0	0	0	1	25
82.7060546875	0.100035570836553	169382	110	8	stim08_sf2_pattern1_cont1_shape1.png	0	110	0	326.584885122034	326.684920692871	0.100035570836553	stim08_sf2_pattern1_cont1_shape1.png	2	1	1	1	1	4	0	0	0	0	0	0	0	0	0	0	0	0	1	25
83.2060546875	0.0999951027788484	170406	111	14	stim14_sf2_pattern2_cont2_shape1.png	0	111	0	327.084873538786	327.184868641565	0.0999951027788484	stim14_sf2_pattern2_cont2_shape1.png	2	2	2	1	1	2	0	0	0	0	0	0	0	0	0	0	0	0	1	25
83.7060546875	0.0999449575774634	171430	112	1	stim01_sf1_pattern1_cont1_shape2.png	0	112	0	327.584875444891	327.684820402468	0.0999449575774634	stim01_sf1_pattern1_cont1_shape2.png	1	1	1	2	1	1	0	0	0	0	0	0	0	0	0	0	0	0	1	25
84.2060546875	0.0999948095322907	172454	113	9	stim09_sf2_pattern1_cont1_shape2.png	0	113	0	328.084857410213	328.184852219745	0.0999948095322907	stim09_sf2_pattern1_cont1_shape2.png	2	1	1	2	1	1	0	0	0	0	0	0	0	0	0	0	0	0	1	25
84.7060546875	0.0999789742036228	173478	114	5	stim05_sf1_pattern2_cont1_shape2.png	0	114	0	328.584848759434	328.684827733638	0.0999789742036228	stim05_sf1_pattern2_cont1_shape2.png	1	2	1	2	1	3	0	0	0	0	0	0	0	0	0	0	0	0	1	25
85.2060546875	0.099980733684788	174502	115	0	stim00_sf1_pattern1_cont1_shape1.png	0	115	0	329.084844507355	329.18482524104	0.099980733684788	stim00_sf1_pattern1_cont1_shape1.png	1	1	1	1	1	4	0	0	0	0	0	0	0	0	0	0	0	0	1	25
85.7060546875	0.099977801219211	175526	116	11	stim11_sf2_pattern1_cont2_shape2.png	0	116	0	329.58483439034	329.684812191559	0.099977801219211	stim11_sf2_pattern1_cont2_shape2.png	2	1	2	2	1	1	0	0	0	0	0	0	0	0	0	0	0	0	1	25
86.2060546875	0.0999983284946211	176550	117	2	stim02_sf1_pattern1_cont2_shape1.png	0	117	0	330.084825446313	330.184823774807	0.0999983284946211	stim02_sf1_pattern1_cont2_shape1.png	1	1	2	1	1	4	0	0	0	0	0	0	0	0	0	0	0	0	1	25
86.7060546875	0.0999660713459889	177574	118	12	stim12_sf2_pattern2_cont1_shape1.png	0	118	0	330.584817382027	330.684783453373	0.0999660713459889	stim12_sf2_pattern2_cont1_shape1.png	2	2	1	1	1	2	0	0	0	0	0	0	0	0	0	0	0	0	1	25
87.2060546875	0.0999989149859175	178598	119	13	stim13_sf2_pattern2_cont1_shape2.png	0	119	0	331.084812250208	331.184811165194	0.0999989149859175	stim13_sf2_pattern2_cont1_shape2.png	2	2	1	2	1	3	0	0	0	0	0	0	0	0	0	0	0	0	1	25
87.7060546875	0.0999604996559356	179622	120	5	stim05_sf1_pattern2_cont1_shape2.png	0	120	0	331.584805065662	331.684765565318	0.0999604996559356	stim05_sf1_pattern2_cont1_shape2.png	1	2	1	2	1	3	0	0	0	0	0	0	0	0	0	0	0	0	1	25
88.2060546875	0.099956100955751	180646	121	6	stim06_sf1_pattern2_cont2_shape1.png	0	121	0	332.084793775661	332.184749876616	0.099956100955751	stim06_sf1_pattern2_cont2_shape1.png	1	2	2	1	1	2	0	0	0	0	0	0	0	0	0	0	0	0	1	25
88.7060546875	0.0999760417362268	181670	122	14	stim14_sf2_pattern2_cont2_shape1.png	0	122	0	332.584788937089	332.684764978825	0.0999760417362268	stim14_sf2_pattern2_cont2_shape1.png	2	2	2	1	1	2	0	0	0	0	0	0	0	0	0	0	0	0	1	25
89.2060546875	0.0999986217411788	182694	123	15	stim15_sf2_pattern2_cont2_shape2.png	0	123	0	333.084778820074	333.184777441815	0.0999986217411788	stim15_sf2_pattern2_cont2_shape2.png	2	2	2	2	1	3	0	0	0	0	0	0	0	0	0	0	0	0	1	25
89.7060546875	0.0999769214777189	183718	124	13	stim13_sf2_pattern2_cont1_shape2.png	0	124	0	333.584776327476	333.684753248954	0.0999769214777189	stim13_sf2_pattern2_cont1_shape2.png	2	2	1	2	1	3	0	0	0	0	0	0	0	0	0	0	0	0	1	25
90.2060546875	0.0999907040768448	184742	125	10	stim10_sf2_pattern1_cont2_shape1.png	0	125	0	334.084772955139	334.184763659216	0.0999907040768448	stim10_sf2_pattern1_cont2_shape1.png	2	1	2	1	1	4	0	0	0	0	0	0	0	0	0	0	0	0	1	25
90.70556640625	0.0999584469300316	185765	126	4	stim04_sf1_pattern2_cont1_shape1.png	0	126	0	334.584755800201	334.684714247131	0.0999584469300316	stim04_sf1_pattern2_cont1_shape1.png	1	2	1	1	1	2	0	0	0	0	0	0	0	0	0	0	0	0	1	25
91.20556640625	0.0999769214777189	186789	127	0	stim00_sf1_pattern1_cont1_shape1.png	0	127	0	335.084728968119	335.184705889596	0.0999769214777189	stim00_sf1_pattern1_cont1_shape1.png	1	1	1	1	1	4	0	0	0	0	0	0	0	0	0	0	0	0	1	25
91.70556640625	0.0999496495260246	187813	128	2	stim02_sf1_pattern1_cont2_shape1.png	0	128	0	335.584747882538	335.684697532064	0.0999496495260246	stim02_sf1_pattern1_cont2_shape1.png	1	1	2	1	1	4	0	0	0	0	0	0	0	0	0	0	0	0	1	25
92.20556640625	0.100024134209889	188837	129	3	stim03_sf1_pattern1_cont2_shape2.png	0	129	0	336.084699643441	336.184723777651	0.100024134209889	stim03_sf1_pattern1_cont2_shape2.png	1	1	2	2	1	1	0	0	0	0	0	0	0	0	0	0	0	0	1	25
92.70556640625	0.0999604996577546	189861	130	1	stim01_sf1_pattern1_cont1_shape2.png	0	130	0	336.584716211884	336.684676711542	0.0999604996577546	stim01_sf1_pattern1_cont1_shape2.png	1	1	1	2	1	1	0	0	0	0	0	0	0	0	0	0	0	0	1	25
93.20556640625	0.0999766282311612	190885	131	12	stim12_sf2_pattern2_cont1_shape1.png	0	131	0	337.084700816427	337.184677444659	0.0999766282311612	stim12_sf2_pattern2_cont1_shape1.png	2	2	1	1	1	2	0	0	0	0	0	0	0	0	0	0	0	0	1	25
93.70556640625	0.0999607929043123	191909	132	11	stim11_sf2_pattern1_cont2_shape2.png	0	132	0	337.584693045388	337.684653838292	0.0999607929043123	stim11_sf2_pattern1_cont2_shape2.png	2	1	2	2	1	1	0	0	0	0	0	0	0	0	0	0	0	0	1	25
94.20556640625	0.100004486675971	192933	133	9	stim09_sf2_pattern1_cont1_shape2.png	0	133	0	338.084687327075	338.184691813751	0.100004486675971	stim09_sf2_pattern1_cont1_shape2.png	2	1	1	2	1	1	0	0	0	0	0	0	0	0	0	0	0	0	1	25
94.70556640625	0.0999819066728378	193957	134	8	stim08_sf2_pattern1_cont1_shape1.png	0	134	0	338.584668119411	338.684650026084	0.0999819066728378	stim08_sf2_pattern1_cont1_shape1.png	2	1	1	1	1	4	0	0	0	0	0	0	0	0	0	0	0	0	1	25
95.20556640625	0.099997448753129	194981	135	7	stim07_sf1_pattern2_cont2_shape2.png	0	135	0	339.084676770191	339.184674218945	0.099997448753129	stim07_sf1_pattern2_cont2_shape2.png	1	2	2	2	1	3	0	0	0	0	0	0	0	0	0	0	0	0	1	25
95.70556640625	0.0999845458936761	196005	136	8	stim08_sf2_pattern1_cont1_shape1.png	0	136	0	339.584678089801	339.684662635695	0.0999845458936761	stim08_sf2_pattern1_cont1_shape1.png	2	1	1	1	1	4	0	0	0	0	0	0	0	0	0	0	0	0	1	25
96.20556640625	0.100016803042308	197029	137	13	stim13_sf2_pattern2_cont1_shape2.png	0	137	0	340.08466034837	340.184677151412	0.100016803042308	stim13_sf2_pattern2_cont1_shape2.png	2	2	1	2	1	3	0	0	0	0	0	0	0	0	0	0	0	0	1	25
96.70556640625	0.0999748687499959	198053	138	5	stim05_sf1_pattern2_cont1_shape2.png	0	138	0	340.584670758632	340.684645627382	0.0999748687499959	stim05_sf1_pattern2_cont1_shape2.png	1	2	1	2	1	3	0	0	0	0	0	0	0	0	0	0	0	0	1	25
97.20556640625	0.099983666152184	199077	139	9	stim09_sf2_pattern1_cont1_shape2.png	0	139	0	341.084685860842	341.184669526994	0.099983666152184	stim09_sf2_pattern1_cont1_shape2.png	2	1	1	2	1	1	0	0	0	0	0	0	0	0	0	0	0	0	1	25
97.70556640625	0.0999470103051863	200101	140	1	stim01_sf1_pattern1_cont1_shape2.png	0	140	0	341.584663134216	341.684610144521	0.0999470103051863	stim01_sf1_pattern1_cont1_shape2.png	1	1	1	2	1	1	0	0	0	0	0	0	0	0	0	0	0	0	1	25
98.20556640625	0.0999956892719638	201125	141	0	stim00_sf1_pattern1_cont1_shape1.png	0	141	0	342.084650084733	342.184645774005	0.0999956892719638	stim00_sf1_pattern1_cont1_shape1.png	1	1	1	1	1	4	0	0	0	0	0	0	0	0	0	0	0	0	1	25
98.70556640625	0.0999766282311612	202149	142	3	stim03_sf1_pattern1_cont2_shape2.png	0	142	0	342.584640554212	342.684617182444	0.0999766282311612	stim03_sf1_pattern1_cont2_shape2.png	1	1	2	2	1	1	0	0	0	0	0	0	0	0	0	0	0	0	1	25
99.20556640625	0.0999968622600136	203173	143	6	stim06_sf1_pattern2_cont2_shape1.png	0	143	0	343.084634542653	343.184631404913	0.0999968622600136	stim06_sf1_pattern2_cont2_shape1.png	1	2	2	1	1	2	0	0	0	0	0	0	0	0	0	0	0	0	1	25
99.70556640625	0.0999780944657687	204197	144	14	stim14_sf2_pattern2_cont2_shape1.png	0	144	0	343.584625305379	343.684603399844	0.0999780944657687	stim14_sf2_pattern2_cont2_shape1.png	2	2	2	1	1	2	0	0	0	0	0	0	0	0	0	0	0	0	1	25
100.20556640625	0.0999933432976832	205221	145	10	stim10_sf2_pattern1_cont2_shape1.png	0	145	0	344.084619587067	344.184612930365	0.0999933432976832	stim10_sf2_pattern1_cont2_shape1.png	2	1	2	1	1	4	0	0	0	0	0	0	0	0	0	0	0	0	1	25
100.70556640625	0.099972816022273	206245	146	11	stim11_sf2_pattern1_cont2_shape2.png	0	146	0	344.584612695768	344.68458551179	0.099972816022273	stim11_sf2_pattern1_cont2_shape2.png	2	1	2	2	1	1	0	0	0	0	0	0	0	0	0	0	0	0	1	25
101.20556640625	0.0999939297907986	207269	147	12	stim12_sf2_pattern2_cont1_shape1.png	0	147	0	345.084608150442	345.184602080233	0.0999939297907986	stim12_sf2_pattern2_cont1_shape1.png	2	2	1	1	1	2	0	0	0	0	0	0	0	0	0	0	0	0	1	25
101.70556640625	0.0999707632945501	208293	148	2	stim02_sf1_pattern1_cont2_shape1.png	0	148	0	345.584593341478	345.684564104773	0.0999707632945501	stim02_sf1_pattern1_cont2_shape1.png	1	1	2	1	1	4	0	0	0	0	0	0	0	0	0	0	0	0	1	25
102.20556640625	0.0999968622581946	209317	149	4	stim04_sf1_pattern2_cont1_shape1.png	0	149	0	346.084587623167	346.184584485425	0.0999968622581946	stim04_sf1_pattern2_cont1_shape1.png	1	2	1	1	1	2	0	0	0	0	0	0	0	0	0	0	0	0	1	25
102.70556640625	0.0999581536816549	210341	150	7	stim07_sf1_pattern2_cont2_shape2.png	0	150	0	346.584580731867	346.684538885549	0.0999581536816549	stim07_sf1_pattern2_cont2_shape2.png	1	2	2	2	1	3	0	0	0	0	0	0	0	0	0	0	0	0	1	25
103.20556640625	0.0999965690116369	211365	151	15	stim15_sf2_pattern2_cont2_shape2.png	0	151	0	347.084573547321	347.184570116333	0.0999965690116369	stim15_sf2_pattern2_cont2_shape2.png	2	2	2	2	1	3	0	0	0	0	0	0	0	0	0	0	0	0	1	25
103.70556640625	0.0999772147242766	212389	152	8	stim08_sf2_pattern1_cont1_shape1.png	0	152	0	347.584563723552	347.684540938277	0.0999772147242766	stim08_sf2_pattern1_cont1_shape1.png	2	1	1	1	1	4	0	0	0	0	0	0	0	0	0	0	0	0	1	25
104.20556640625	0.100001847455133	213413	153	14	stim14_sf2_pattern2_cont2_shape1.png	0	153	0	348.084555952513	348.184557799968	0.100001847455133	stim14_sf2_pattern2_cont2_shape1.png	2	2	2	1	1	2	0	0	0	0	0	0	0	0	0	0	0	0	1	25
104.70556640625	0.0999646051132004	214437	154	9	stim09_sf2_pattern1_cont1_shape2.png	0	154	0	348.584549940953	348.684514546067	0.0999646051132004	stim09_sf2_pattern1_cont1_shape2.png	2	1	1	2	1	1	0	0	0	0	0	0	0	0	0	0	0	0	1	25
105.20556640625	0.0999921703114524	215461	155	6	stim06_sf1_pattern2_cont2_shape1.png	0	155	0	349.084547741602	349.184539911914	0.0999921703114524	stim06_sf1_pattern2_cont2_shape1.png	1	2	2	1	1	2	0	0	0	0	0	0	0	0	0	0	0	0	1	25
105.70556640625	0.0999731092688307	216485	156	7	stim07_sf1_pattern2_cont2_shape2.png	0	156	0	349.584538211082	349.684511320351	0.0999731092688307	stim07_sf1_pattern2_cont2_shape2.png	1	2	2	2	1	3	0	0	0	0	0	0	0	0	0	0	0	0	1	25
106.20556640625	0.0999956892737828	217509	157	1	stim01_sf1_pattern1_cont1_shape2.png	0	157	0	350.084527214327	350.184522903601	0.0999956892737828	stim01_sf1_pattern1_cont1_shape2.png	1	1	1	2	1	1	0	0	0	0	0	0	0	0	0	0	0	0	1	25
106.70556640625	0.0999602064111969	218533	158	11	stim11_sf2_pattern1_cont2_shape2.png	0	158	0	350.584528827185	350.684489033596	0.0999602064111969	stim11_sf2_pattern1_cont2_shape2.png	2	1	2	2	1	1	0	0	0	0	0	0	0	0	0	0	0	0	1	25
107.20556640625	0.100021788235608	219557	159	3	stim03_sf1_pattern1_cont2_shape2.png	0	159	0	351.084488505752	351.184510293988	0.100021788235608	stim03_sf1_pattern1_cont2_shape2.png	1	1	2	2	1	1	0	0	0	0	0	0	0	0	0	0	0	0	1	25
107.705078125	0.0999754552431114	220580	160	4	stim04_sf1_pattern2_cont1_shape1.png	0	160	0	351.584495397052	351.684470852295	0.0999754552431114	stim04_sf1_pattern2_cont1_shape1.png	1	2	1	1	1	2	0	0	0	0	0	0	0	0	0	0	0	0	1	25
108.205078125	0.100027359925662	221604	161	2	stim02_sf1_pattern1_cont2_shape1.png	0	161	0	352.08445302289	352.184480382815	0.100027359925662	stim02_sf1_pattern1_cont2_shape1.png	1	1	2	1	1	4	0	0	0	0	0	0	0	0	0	0	0	0	1	25
108.705078125	0.0999387993942946	222628	162	12	stim12_sf2_pattern2_cont1_shape1.png	0	162	0	352.58446900484	352.684407804234	0.0999387993942946	stim12_sf2_pattern2_cont1_shape1.png	2	2	1	1	1	2	0	0	0	0	0	0	0	0	0	0	0	0	1	25
109.205078125	0.100021788237427	223652	163	15	stim15_sf2_pattern2_cont2_shape2.png	0	163	0	353.084437774056	353.184459562293	0.100021788237427	stim15_sf2_pattern2_cont2_shape2.png	2	2	2	2	1	3	0	0	0	0	0	0	0	0	0	0	0	0	1	25
109.705078125	0.0999992082324752	224676	164	13	stim13_sf2_pattern2_cont1_shape2.png	0	164	0	353.584452289773	353.684451498006	0.0999992082324752	stim13_sf2_pattern2_cont1_shape2.png	2	2	1	2	1	3	0	0	0	0	0	0	0	0	0	0	0	0	1	25
110.205078125	0.0999851323867915	225700	165	0	stim00_sf1_pattern1_cont1_shape1.png	0	165	0	354.084451849903	354.18443698229	0.0999851323867915	stim00_sf1_pattern1_cont1_shape1.png	1	1	1	1	1	4	0	0	0	0	0	0	0	0	0	0	0	0	1	25
110.705078125	0.0999904108302871	226724	166	10	stim10_sf2_pattern1_cont2_shape1.png	0	166	0	354.584451703278	354.684442114109	0.0999904108302871	stim10_sf2_pattern1_cont2_shape1.png	2	1	2	1	1	4	0	0	0	0	0	0	0	0	0	0	0	0	1	25
111.205078125	0.100015923300816	227748	167	5	stim05_sf1_pattern2_cont1_shape2.png	0	167	0	355.084437480809	355.18445340411	0.100015923300816	stim05_sf1_pattern2_cont1_shape2.png	1	2	1	2	1	3	0	0	0	0	0	0	0	0	0	0	0	0	1	25
131.0546875	0.100008005636482	268400	168	5	stim05_sf1_pattern2_cont1_shape2.png	1	0	0	374.934148794007	375.034156799644	0.100008005636482	stim05_sf1_pattern2_cont1_shape2.png	1	2	1	2	1	3	0	0	0	0	0	0	0	0	0	0	0	0	1	25
131.5546875	0.099997448753129	269424	169	1	stim01_sf1_pattern1_cont1_shape2.png	1	1	0	375.434148940631	375.534146389384	0.099997448753129	stim01_sf1_pattern1_cont1_shape2.png	1	1	1	2	1	1	0	0	0	0	0	0	0	0	0	0	0	0	1	25
132.0546875	0.10000829888304	270448	170	7	stim07_sf1_pattern2_cont2_shape2.png	1	2	0	375.934134718162	376.034143017045	0.10000829888304	stim07_sf1_pattern2_cont2_shape2.png	1	2	2	2	1	3	0	0	0	0	0	0	0	0	0	0	0	0	1	25
132.5546875	0.0999989149877365	271472	171	15	stim15_sf2_pattern2_cont2_shape2.png	1	3	0	376.434133985043	376.534132900031	0.0999989149877365	stim15_sf2_pattern2_cont2_shape2.png	2	2	2	2	1	3	0	0	0	0	0	0	0	0	0	0	0	0	1	25
133.0546875	0.10003117213455	272496	172	3	stim03_sf1_pattern1_cont2_shape2.png	1	4	0	376.934095129844	377.034126301978	0.10003117213455	stim03_sf1_pattern1_cont2_shape2.png	1	1	2	2	1	1	0	0	0	0	0	0	0	0	0	0	0	0	1	25
133.5546875	0.0999977419996867	273520	173	11	stim11_sf2_pattern1_cont2_shape2.png	1	5	0	377.434119909198	377.534117651197	0.0999977419996867	stim11_sf2_pattern1_cont2_shape2.png	2	1	2	2	1	1	0	0	0	0	0	0	0	0	0	0	0	0	1	25
134.0546875	0.100005952910578	274544	174	9	stim09_sf2_pattern1_cont1_shape2.png	1	6	0	377.934104220494	378.034110173405	0.100005952910578	stim09_sf2_pattern1_cont1_shape2.png	2	1	1	2	1	1	0	0	0	0	0	0	0	0	0	0	0	0	1	25
134.5546875	0.100000087973967	275568	175	8	stim08_sf2_pattern1_cont1_shape1.png	1	7	0	378.434102900885	378.534102988859	0.100000087973967	stim08_sf2_pattern1_cont1_shape1.png	2	1	1	1	1	4	0	0	0	0	0	0	0	0	0	0	0	0	1	25
135.0546875	0.100023254470216	276592	176	2	stim02_sf1_pattern1_cont2_shape1.png	1	8	0	378.934071963347	379.034095217818	0.100023254470216	stim02_sf1_pattern1_cont2_shape1.png	1	1	2	1	1	4	0	0	0	0	0	0	0	0	0	0	0	0	1	25
135.5546875	0.100001554206756	277616	177	4	stim04_sf1_pattern2_cont1_shape1.png	1	9	0	379.434086772311	379.534088326518	0.100001554206756	stim04_sf1_pattern2_cont1_shape1.png	1	2	1	1	1	2	0	0	0	0	0	0	0	0	0	0	0	0	1	25
136.0546875	0.0999992082342942	278640	178	0	stim00_sf1_pattern1_cont1_shape1.png	1	10	0	379.934082813479	380.034082021713	0.0999992082342942	stim00_sf1_pattern1_cont1_shape1.png	1	1	1	1	1	4	0	0	0	0	0	0	0	0	0	0	0	0	1	25
136.5546875	0.0999959825185215	279664	179	6	stim06_sf1_pattern2_cont2_shape1.png	1	11	0	380.434079441142	380.53407542366	0.0999959825185215	stim06_sf1_pattern2_cont2_shape1.png	1	2	2	1	1	2	0	0	0	0	0	0	0	0	0	0	0	0	1	25
137.0546875	0.0999933432976832	280688	180	12	stim12_sf2_pattern2_cont1_shape1.png	1	12	0	380.934057301009	381.034050644306	0.0999933432976832	stim12_sf2_pattern2_cont1_shape1.png	2	2	1	1	1	2	0	0	0	0	0	0	0	0	0	0	0	0	1	25
137.5546875	0.100000674468902	281712	181	10	stim10_sf2_pattern1_cont2_shape1.png	1	13	0	381.43403750685	381.534038181318	0.100000674468902	stim10_sf2_pattern1_cont2_shape1.png	2	1	2	1	1	4	0	0	0	0	0	0	0	0	0	0	0	0	1	25
138.0546875	0.0999927568045678	282736	182	14	stim14_sf2_pattern2_cont2_shape1.png	1	14	0	381.934030322303	382.034023079108	0.0999927568045678	stim14_sf2_pattern2_cont2_shape1.png	2	2	2	1	1	2	0	0	0	0	0	0	0	0	0	0	0	0	1	25
138.5546875	0.0999997947274096	283760	183	13	stim13_sf2_pattern2_cont1_shape2.png	1	15	0	382.434001144247	382.534000938975	0.0999997947274096	stim13_sf2_pattern2_cont1_shape2.png	2	2	1	2	1	3	0	0	0	0	0	0	0	0	0	0	0	0	1	25
139.05419921875	0.0999980352462444	284783	184	6	stim06_sf1_pattern2_cont2_shape1.png	1	16	0	382.933995132689	383.033993167935	0.0999980352462444	stim06_sf1_pattern2_cont2_shape1.png	1	2	2	1	1	2	0	0	0	0	0	0	0	0	0	0	0	0	1	25
139.55419921875	0.0999959825185215	285807	185	5	stim05_sf1_pattern2_cont1_shape2.png	1	17	0	383.43398824139	383.533984223908	0.0999959825185215	stim05_sf1_pattern2_cont1_shape2.png	1	2	1	2	1	3	0	0	0	0	0	0	0	0	0	0	0	0	1	25
140.05419921875	0.100007419145186	286831	186	9	stim09_sf2_pattern1_cont1_shape2.png	1	18	0	383.933969033724	384.033976452869	0.100007419145186	stim09_sf2_pattern1_cont1_shape2.png	2	1	1	2	1	1	0	0	0	0	0	0	0	0	0	0	0	0	1	25
140.55419921875	0.0999983284928021	287855	187	1	stim01_sf1_pattern1_cont1_shape2.png	1	19	0	384.433972699309	384.533971027802	0.0999983284928021	stim01_sf1_pattern1_cont1_shape2.png	1	1	1	2	1	1	0	0	0	0	0	0	0	0	0	0	0	0	1	25
141.05419921875	0.100008005638301	288879	188	7	stim07_sf1_pattern2_cont2_shape2.png	1	20	0	384.933988974506	385.033996980144	0.100008005638301	stim07_sf1_pattern2_cont2_shape2.png	1	2	2	2	1	3	0	0	0	0	0	0	0	0	0	0	0	0	1	25
141.55419921875	0.100002727194806	289903	189	12	stim12_sf2_pattern2_cont1_shape1.png	1	21	0	385.433992346845	385.53399507404	0.100002727194806	stim12_sf2_pattern2_cont1_shape1.png	2	2	1	1	1	2	0	0	0	0	0	0	0	0	0	0	0	0	1	25
142.05419921875	0.0999942230373563	290927	190	11	stim11_sf2_pattern1_cont2_shape2.png	1	22	0	385.933990147494	386.033984370531	0.0999942230373563	stim11_sf2_pattern1_cont2_shape2.png	2	1	2	2	1	1	0	0	0	0	0	0	0	0	0	0	0	0	1	25
142.55419921875	0.100017682781981	291951	191	13	stim13_sf2_pattern2_cont1_shape2.png	1	23	0	386.433972992556	386.533990675338	0.100017682781981	stim13_sf2_pattern2_cont1_shape2.png	2	2	1	2	1	3	0	0	0	0	0	0	0	0	0	0	0	0	1	25
143.05419921875	0.0999933432976832	292975	192	0	stim00_sf1_pattern1_cont1_shape1.png	1	24	0	386.933993666455	387.033987009752	0.0999933432976832	stim00_sf1_pattern1_cont1_shape1.png	1	1	1	1	1	4	0	0	0	0	0	0	0	0	0	0	0	0	1	25
143.55419921875	0.0999857188817259	293999	193	4	stim04_sf1_pattern2_cont1_shape1.png	1	25	0	387.433998505026	387.533984223908	0.0999857188817259	stim04_sf1_pattern2_cont1_shape1.png	1	2	1	1	1	2	0	0	0	0	0	0	0	0	0	0	0	0	1	25
144.05419921875	0.100009765117647	295023	194	14	stim14_sf2_pattern2_cont2_shape1.png	1	26	0	387.933961116061	388.033970881179	0.100009765117647	stim14_sf2_pattern2_cont2_shape1.png	2	2	2	1	1	2	0	0	0	0	0	0	0	0	0	0	0	0	1	25
144.55419921875	0.100003313687921	296047	195	8	stim08_sf2_pattern1_cont1_shape1.png	1	27	0	388.43395539775	388.533958711438	0.100003313687921	stim08_sf2_pattern1_cont1_shape1.png	2	1	1	1	1	4	0	0	0	0	0	0	0	0	0	0	0	0	1	25
145.05419921875	0.100001260960198	297071	196	3	stim03_sf1_pattern1_cont2_shape2.png	1	28	0	388.933953198399	389.033954459359	0.100001260960198	stim03_sf1_pattern1_cont2_shape2.png	1	1	2	2	1	1	0	0	0	0	0	0	0	0	0	0	0	0	1	25
145.55419921875	0.099939385889229	298095	197	15	stim15_sf2_pattern2_cont2_shape2.png	1	29	0	389.433945720604	389.533885106493	0.099939385889229	stim15_sf2_pattern2_cont2_shape2.png	2	2	2	2	1	3	0	0	0	0	0	0	0	0	0	0	0	0	1	25
146.05419921875	0.100002727194806	299119	198	10	stim10_sf2_pattern1_cont2_shape1.png	1	30	0	389.933930618396	390.03393334559	0.100002727194806	stim10_sf2_pattern1_cont2_shape1.png	2	1	2	1	1	4	0	0	0	0	0	0	0	0	0	0	0	0	1	25
146.55419921875	0.099997448753129	300143	199	4	stim04_sf1_pattern2_cont1_shape1.png	1	31	1	390.433928712291	390.533926161044	0.099997448753129	stim04_sf1_pattern2_cont1_shape1.png	1	2	1	1	1	2	0	0	0	0	0	0	0	0	0	0	0	0	1	25
147.05419921875	0.0999921703114524	301167	200	4	stim04_sf1_pattern2_cont1_shape1.png	1	32	1	390.933927099433	391.033919269745	0.0999921703114524	stim04_sf1_pattern2_cont1_shape1.png	1	2	1	1	1	2	0	0	0	0	0	0	0	0	0	0	0	0	1	25
147.55419921875	0.0999992082342942	302191	201	7	stim07_sf1_pattern2_cont2_shape2.png	1	33	2	391.433914049951	391.533913258185	0.0999992082342942	stim07_sf1_pattern2_cont2_shape2.png	1	2	2	2	1	3	0	0	0	0	0	0	0	0	0	0	0	0	1	25
148.05419921875	0.100000381222344	303215	202	10	stim10_sf2_pattern1_cont2_shape1.png	1	34	2	391.933906865404	392.033907246627	0.100000381222344	stim10_sf2_pattern1_cont2_shape1.png	2	1	2	1	1	4	0	0	0	0	0	0	0	0	0	0	0	0	1	25
148.55419921875	0.0999965690116369	304239	203	2	stim02_sf1_pattern1_cont2_shape1.png	1	35	0	392.433898214626	392.533894783637	0.0999965690116369	stim02_sf1_pattern1_cont2_shape1.png	1	1	2	1	1	4	0	0	0	0	0	0	0	0	0	0	0	0	1	25
149.05419921875	0.099997448753129	305263	204	13	stim13_sf2_pattern2_cont1_shape2.png	1	36	0	392.933892789559	393.033890238312	0.099997448753129	stim13_sf2_pattern2_cont1_shape2.png	2	2	1	2	1	3	0	0	0	0	0	0	0	0	0	0	0	0	1	25
149.55419921875	0.0999951027788484	306287	205	15	stim15_sf2_pattern2_cont2_shape2.png	1	37	0	393.433883552285	393.533878655064	0.0999951027788484	stim15_sf2_pattern2_cont2_shape2.png	2	2	2	2	1	3	0	0	0	0	0	0	0	0	0	0	0	0	1	25
150.05419921875	0.100010058364205	307311	206	1	stim01_sf1_pattern1_cont1_shape2.png	1	38	0	393.933867277088	394.033877335452	0.100010058364205	stim01_sf1_pattern1_cont1_shape2.png	1	1	1	2	1	1	0	0	0	0	0	0	0	0	0	0	0	0	1	25
150.55419921875	0.0999959825185215	308335	207	10	stim10_sf2_pattern1_cont2_shape1.png	1	39	0	394.4338685967	394.533864579218	0.0999959825185215	stim10_sf2_pattern1_cont2_shape1.png	2	1	2	1	1	4	0	0	0	0	0	0	0	0	0	0	0	0	1	25
151.05419921875	0.100008005638301	309359	208	6	stim06_sf1_pattern2_cont2_shape1.png	1	40	0	394.933851735008	395.033859740646	0.100008005638301	stim06_sf1_pattern2_cont2_shape1.png	1	2	2	1	1	2	0	0	0	0	0	0	0	0	0	0	0	0	1	25
151.55419921875	0.0999997947274096	310383	209	8	stim08_sf2_pattern1_cont1_shape1.png	1	41	0	395.433851295138	395.533851089865	0.0999997947274096	stim08_sf2_pattern1_cont1_shape1.png	2	1	1	1	1	4	0	0	0	0	0	0	0	0	0	0	0	0	1	25
152.05419921875	0.0999842526471184	311407	210	11	stim11_sf2_pattern1_cont2_shape2.png	1	42	0	395.933840005137	396.033824257784	0.0999842526471184	stim11_sf2_pattern1_cont2_shape2.png	2	1	2	2	1	1	0	0	0	0	0	0	0	0	0	0	0	0	1	25
152.55419921875	0.0999962757650792	312431	211	14	stim14_sf2_pattern2_cont2_shape1.png	1	43	0	396.433836339553	396.533832615318	0.0999962757650792	stim14_sf2_pattern2_cont2_shape1.png	2	2	2	1	1	2	0	0	0	0	0	0	0	0	0	0	0	0	1	25
153.05419921875	0.100010938105697	313455	212	9	stim09_sf2_pattern1_cont1_shape2.png	1	44	0	396.933820650849	397.033831588955	0.100010938105697	stim09_sf2_pattern1_cont1_shape2.png	2	1	1	2	1	1	0	0	0	0	0	0	0	0	0	0	0	0	1	25
153.55419921875	0.0999983284928021	314479	213	7	stim07_sf1_pattern2_cont2_shape2.png	1	45	0	397.433820797472	397.533819125965	0.0999983284928021	stim07_sf1_pattern2_cont2_shape2.png	1	2	2	2	1	3	0	0	0	0	0	0	0	0	0	0	0	0	1	25
154.05419921875	0.0999924635561911	315503	214	0	stim00_sf1_pattern1_cont1_shape1.png	1	46	0	397.933810973705	398.033803437262	0.0999924635561911	stim00_sf1_pattern1_cont1_shape1.png	1	1	1	1	1	4	0	0	0	0	0	0	0	0	0	0	0	0	1	25
154.55419921875	0.099977801217392	316527	215	2	stim02_sf1_pattern1_cont2_shape1.png	1	47	0	398.433785901105	398.533763702322	0.099977801217392	stim02_sf1_pattern1_cont2_shape1.png	1	1	2	1	1	4	0	0	0	0	0	0	0	0	0	0	0	0	1	25
155.05419921875	0.100006246155317	317551	216	5	stim05_sf1_pattern2_cont1_shape2.png	1	48	0	398.933772558375	399.033778804531	0.100006246155317	stim05_sf1_pattern2_cont1_shape2.png	1	2	1	2	1	3	0	0	0	0	0	0	0	0	0	0	0	0	1	25
155.55419921875	0.0999983284928021	318575	217	12	stim12_sf2_pattern2_cont1_shape1.png	1	49	0	399.433772118506	399.533770446998	0.0999983284928021	stim12_sf2_pattern2_cont1_shape1.png	2	2	1	1	1	2	0	0	0	0	0	0	0	0	0	0	0	0	1	25
156.05419921875	0.100005952910578	319599	218	3	stim03_sf1_pattern1_cont2_shape2.png	1	50	0	399.933757602788	400.033763555699	0.100005952910578	stim03_sf1_pattern1_cont2_shape2.png	1	1	2	2	1	1	0	0	0	0	0	0	0	0	0	0	0	0	1	25
156.5537109375	0.0999930500511255	320622	219	4	stim04_sf1_pattern2_cont1_shape1.png	1	51	0	400.433766840062	400.533759890113	0.0999930500511255	stim04_sf1_pattern2_cont1_shape1.png	1	2	1	1	1	2	0	0	0	0	0	0	0	0	0	0	0	0	1	25
157.0537109375	0.0999927568045678	321646	220	9	stim09_sf2_pattern1_cont1_shape2.png	1	52	0	400.933762587983	401.033755344788	0.0999927568045678	stim09_sf2_pattern1_cont1_shape2.png	2	1	1	2	1	1	0	0	0	0	0	0	0	0	0	0	0	0	1	25
157.5537109375	0.0999968622600136	322670	221	3	stim03_sf1_pattern1_cont2_shape2.png	1	53	0	401.433747779021	401.533744641281	0.0999968622600136	stim03_sf1_pattern1_cont2_shape2.png	1	1	2	2	1	1	0	0	0	0	0	0	0	0	0	0	0	0	1	25
158.0537109375	0.10001064485914	323694	222	8	stim08_sf2_pattern1_cont1_shape1.png	1	54	0	401.933732676811	402.03374332167	0.10001064485914	stim08_sf2_pattern1_cont1_shape1.png	2	1	1	1	1	4	0	0	0	0	0	0	0	0	0	0	0	0	1	25
158.5537109375	0.0999909973252215	324718	223	12	stim12_sf2_pattern2_cont1_shape1.png	1	55	0	402.433760388632	402.533751385958	0.0999909973252215	stim12_sf2_pattern2_cont1_shape1.png	2	2	1	1	1	2	0	0	0	0	0	0	0	0	0	0	0	0	1	25
159.0537109375	0.0999989149877365	325742	224	4	stim04_sf1_pattern2_cont1_shape1.png	1	56	0	402.933744113436	403.033743028423	0.0999989149877365	stim04_sf1_pattern2_cont1_shape1.png	1	2	1	1	1	2	0	0	0	0	0	0	0	0	0	0	0	0	1	25
159.5537109375	0.0999927568045678	326766	225	6	stim06_sf1_pattern2_cont2_shape1.png	1	57	0	403.433740447852	403.533733204657	0.0999927568045678	stim06_sf1_pattern2_cont2_shape1.png	1	2	2	1	1	2	0	0	0	0	0	0	0	0	0	0	0	0	1	25
160.0537109375	0.100007712389925	327790	226	2	stim02_sf1_pattern1_cont2_shape1.png	1	58	0	403.933718014472	404.033725726862	0.100007712389925	stim02_sf1_pattern1_cont2_shape1.png	1	1	2	1	1	4	0	0	0	0	0	0	0	0	0	0	0	0	1	25
160.5537109375	0.100007125896809	328814	227	1	stim01_sf1_pattern1_cont1_shape2.png	1	59	0	404.433723439537	404.533730565434	0.100007125896809	stim01_sf1_pattern1_cont1_shape2.png	1	1	1	2	1	1	0	0	0	0	0	0	0	0	0	0	0	0	1	25
161.0537109375	0.0999980352462444	329838	228	13	stim13_sf2_pattern2_cont1_shape2.png	1	60	0	404.933715375251	405.033713410498	0.0999980352462444	stim13_sf2_pattern2_cont1_shape2.png	2	2	1	2	1	3	0	0	0	0	0	0	0	0	0	0	0	0	1	25
161.5537109375	0.0999956892719638	330862	229	7	stim07_sf1_pattern2_cont2_shape2.png	1	61	0	405.433709070445	405.533704759717	0.0999956892719638	stim07_sf1_pattern2_cont2_shape2.png	1	2	2	2	1	3	0	0	0	0	0	0	0	0	0	0	0	0	1	25
162.0537109375	0.100008885377974	331886	230	5	stim05_sf1_pattern2_cont1_shape2.png	1	62	0	405.933687810053	406.033696695431	0.100008885377974	stim05_sf1_pattern2_cont1_shape2.png	1	2	1	2	1	3	0	0	0	0	0	0	0	0	0	0	0	0	1	25
162.5537109375	0.0999983284928021	332910	231	10	stim10_sf2_pattern1_cont2_shape1.png	1	63	0	406.433690889144	406.533689217636	0.0999983284928021	stim10_sf2_pattern1_cont2_shape1.png	2	1	2	1	1	4	0	0	0	0	0	0	0	0	0	0	0	0	1	25
163.0537109375	0.100013284079978	333934	232	14	stim14_sf2_pattern2_cont2_shape1.png	1	64	0	406.933667576024	407.033680860104	0.100013284079978	stim14_sf2_pattern2_cont2_shape1.png	2	2	2	1	1	2	0	0	0	0	0	0	0	0	0	0	0	0	1	25
163.5537109375	0.0999956892719638	334958	233	0	stim00_sf1_pattern1_cont1_shape1.png	1	65	0	407.433678572779	407.533674262051	0.0999956892719638	stim00_sf1_pattern1_cont1_shape1.png	1	1	1	1	1	4	0	0	0	0	0	0	0	0	0	0	0	0	1	25
164.0537109375	0.100007419145186	335982	234	15	stim15_sf2_pattern2_cont2_shape2.png	1	66	0	407.933659365113	408.033666784258	0.100007419145186	stim15_sf2_pattern2_cont2_shape2.png	2	2	2	2	1	3	0	0	0	0	0	0	0	0	0	0	0	0	1	25
164.5537109375	0.0999953960254061	337006	235	11	stim11_sf2_pattern1_cont2_shape2.png	1	67	0	408.433663323945	408.533658719971	0.0999953960254061	stim11_sf2_pattern1_cont2_shape2.png	2	1	2	2	1	1	0	0	0	0	0	0	0	0	0	0	0	0	1	25
165.0537109375	0.0999863053748413	338030	236	0	stim00_sf1_pattern1_cont1_shape1.png	1	68	0	408.933665523296	409.033651828671	0.0999863053748413	stim00_sf1_pattern1_cont1_shape1.png	1	1	1	1	1	4	0	0	0	0	0	0	0	0	0	0	0	0	1	25
165.5537109375	0.0999915838183369	339054	237	14	stim14_sf2_pattern2_cont2_shape1.png	1	69	0	409.433649834593	409.533641418411	0.0999915838183369	stim14_sf2_pattern2_cont2_shape1.png	2	2	2	1	1	2	0	0	0	0	0	0	0	0	0	0	0	0	1	25
166.0537109375	0.0999980352462444	340078	238	15	stim15_sf2_pattern2_cont2_shape2.png	1	70	0	409.933640010826	410.033638046072	0.0999980352462444	stim15_sf2_pattern2_cont2_shape2.png	2	2	2	2	1	3	0	0	0	0	0	0	0	0	0	0	0	0	1	25
166.5537109375	0.099997448753129	341102	239	5	stim05_sf1_pattern2_cont1_shape2.png	1	71	0	410.433632533033	410.533629981786	0.099997448753129	stim05_sf1_pattern2_cont1_shape2.png	1	2	1	2	1	3	0	0	0	0	0	0	0	0	0	0	0	0	1	25
167.0537109375	0.099997448753129	342126	240	11	stim11_sf2_pattern1_cont2_shape2.png	1	72	0	410.933624468746	411.033621917499	0.099997448753129	stim11_sf2_pattern1_cont2_shape2.png	2	1	2	2	1	1	0	0	0	0	0	0	0	0	0	0	0	0	1	25
167.5537109375	0.100001847453314	343150	241	8	stim08_sf2_pattern1_cont1_shape1.png	1	73	0	411.433613765239	411.533615612692	0.100001847453314	stim08_sf2_pattern1_cont1_shape1.png	2	1	1	1	1	4	0	0	0	0	0	0	0	0	0	0	0	0	1	25
168.0537109375	0.100007712389925	344174	242	1	stim01_sf1_pattern1_cont1_shape2.png	1	74	0	411.933601009003	412.033608721393	0.100007712389925	stim01_sf1_pattern1_cont1_shape2.png	1	1	1	2	1	1	0	0	0	0	0	0	0	0	0	0	0	0	1	25
168.5537109375	0.100020028756262	345198	243	9	stim09_sf2_pattern1_cont1_shape2.png	1	75	0	412.433580335104	412.53360036386	0.100020028756262	stim09_sf2_pattern1_cont1_shape2.png	2	1	1	2	1	1	0	0	0	0	0	0	0	0	0	0	0	0	1	25
169.0537109375	0.0999660713459889	346222	244	10	stim10_sf2_pattern1_cont2_shape1.png	1	76	0	412.933590158871	413.033556230217	0.0999660713459889	stim10_sf2_pattern1_cont2_shape1.png	2	1	2	1	1	4	0	0	0	0	0	0	0	0	0	0	0	0	1	25
169.5537109375	0.0999968622600136	347246	245	3	stim03_sf1_pattern1_cont2_shape2.png	1	77	0	413.43357241744	413.5335692797	0.0999968622600136	stim03_sf1_pattern1_cont2_shape2.png	1	1	2	2	1	1	0	0	0	0	0	0	0	0	0	0	0	0	1	25
170.0537109375	0.100014750312766	348270	246	4	stim04_sf1_pattern2_cont1_shape1.png	1	78	0	413.933552916529	414.033567666842	0.100014750312766	stim04_sf1_pattern2_cont1_shape1.png	1	2	1	1	1	2	0	0	0	0	0	0	0	0	0	0	0	0	1	25
170.5537109375	0.099980733686607	349294	247	6	stim06_sf1_pattern2_cont2_shape1.png	1	79	0	414.43355599562	414.533536729306	0.099980733686607	stim06_sf1_pattern2_cont2_shape1.png	1	2	2	1	1	2	0	0	0	0	0	0	0	0	0	0	0	0	1	25
171.0537109375	0.10000096771364	350318	248	7	stim07_sf1_pattern2_cont2_shape2.png	1	80	0	414.933540893411	415.033541861125	0.10000096771364	stim07_sf1_pattern2_cont2_shape2.png	1	2	2	2	1	3	0	0	0	0	0	0	0	0	0	0	0	0	1	25
171.5537109375	0.0999936365460599	351342	249	13	stim13_sf2_pattern2_cont1_shape2.png	1	81	0	415.433537814319	415.533531450865	0.0999936365460599	stim13_sf2_pattern2_cont1_shape2.png	2	2	1	2	1	3	0	0	0	0	0	0	0	0	0	0	0	0	1	25
172.0537109375	0.100014457068028	352366	250	12	stim12_sf2_pattern2_cont1_shape1.png	1	82	0	415.933517433667	416.033531890735	0.100014457068028	stim12_sf2_pattern2_cont1_shape1.png	2	2	1	1	1	2	0	0	0	0	0	0	0	0	0	0	0	0	1	25
172.5537109375	0.0999901175837294	353390	251	2	stim02_sf1_pattern1_cont2_shape1.png	1	83	0	416.433535175098	416.533525292682	0.0999901175837294	stim02_sf1_pattern1_cont2_shape1.png	1	1	2	1	1	4	0	0	0	0	0	0	0	0	0	0	0	0	1	25
173.0537109375	0.100002727194806	354414	252	15	stim15_sf2_pattern2_cont2_shape2.png	1	84	0	416.933518313408	417.033521040603	0.100002727194806	stim15_sf2_pattern2_cont2_shape2.png	2	2	2	2	1	3	0	0	0	0	0	0	0	0	0	0	0	0	1	25
173.5537109375	0.100031758627665	355438	253	14	stim14_sf2_pattern2_cont2_shape1.png	1	85	0	417.43348385691	417.533515615538	0.100031758627665	stim14_sf2_pattern2_cont2_shape1.png	2	2	2	1	1	2	0	0	0	0	0	0	0	0	0	0	0	0	1	25
174.05322265625	0.0999965690116369	356461	254	11	stim11_sf2_pattern1_cont2_shape2.png	1	86	0	417.933531509514	418.033528078526	0.0999965690116369	stim11_sf2_pattern1_cont2_shape2.png	2	1	2	2	1	1	0	0	0	0	0	0	0	0	0	0	0	0	1	25
174.55322265625	0.0999986217393598	357485	255	6	stim06_sf1_pattern2_cont2_shape1.png	1	87	0	418.433522565487	418.533521187226	0.0999986217393598	stim06_sf1_pattern2_cont2_shape1.png	1	2	2	1	1	2	0	0	0	0	0	0	0	0	0	0	0	0	1	25
175.05322265625	0.100008885377974	358509	256	7	stim07_sf1_pattern2_cont2_shape2.png	1	88	0	418.93349426717	419.033503152548	0.100008885377974	stim07_sf1_pattern2_cont2_shape2.png	1	2	2	2	1	3	0	0	0	0	0	0	0	0	0	0	0	0	1	25
175.55322265625	0.0999956892719638	359533	257	3	stim03_sf1_pattern1_cont2_shape2.png	1	89	0	419.433499105744	419.533494795016	0.0999956892719638	stim03_sf1_pattern1_cont2_shape2.png	1	1	2	2	1	1	0	0	0	0	0	0	0	0	0	0	0	0	1	25
176.05322265625	0.100006539401875	360557	258	4	stim04_sf1_pattern2_cont1_shape1.png	1	90	0	419.933494560419	420.033501099821	0.100006539401875	stim04_sf1_pattern2_cont1_shape1.png	1	2	1	1	1	2	0	0	0	0	0	0	0	0	0	0	0	0	1	25
176.55322265625	0.100026773430727	361581	259	10	stim10_sf2_pattern1_cont2_shape1.png	1	91	0	420.433444561841	420.533471335271	0.100026773430727	stim10_sf2_pattern1_cont2_shape1.png	2	1	2	1	1	4	0	0	0	0	0	0	0	0	0	0	0	0	1	25
177.05322265625	0.100003020441363	362605	260	0	stim00_sf1_pattern1_cont1_shape1.png	1	92	0	420.933469341195	421.033472361636	0.100003020441363	stim00_sf1_pattern1_cont1_shape1.png	1	1	1	1	1	4	0	0	0	0	0	0	0	0	0	0	0	0	1	25
177.55322265625	0.100001554208575	363629	261	5	stim05_sf1_pattern2_cont1_shape2.png	1	93	0	421.433468608077	421.533470162285	0.100001554208575	stim05_sf1_pattern2_cont1_shape2.png	1	2	1	2	1	3	0	0	0	0	0	0	0	0	0	0	0	0	1	25
178.05322265625	0.100007125896809	364653	262	2	stim02_sf1_pattern1_cont2_shape1.png	1	94	0	421.933449986906	422.033457112802	0.100007125896809	stim02_sf1_pattern1_cont2_shape1.png	1	1	2	1	1	4	0	0	0	0	0	0	0	0	0	0	0	0	1	25
178.55322265625	0.100002140699871	365677	263	1	stim01_sf1_pattern1_cont1_shape2.png	1	95	0	422.433453359245	422.533455499944	0.100002140699871	stim01_sf1_pattern1_cont1_shape2.png	1	1	1	2	1	1	0	0	0	0	0	0	0	0	0	0	0	0	1	25
179.05322265625	0.0999725227757153	366701	264	9	stim09_sf2_pattern1_cont1_shape2.png	1	96	0	422.933447347685	423.03341987046	0.0999725227757153	stim09_sf2_pattern1_cont1_shape2.png	2	1	1	2	1	1	0	0	0	0	0	0	0	0	0	0	0	0	1	25
179.55322265625	0.100022374730543	367725	265	13	stim13_sf2_pattern2_cont1_shape2.png	1	97	0	423.433416116901	423.533438491631	0.100022374730543	stim13_sf2_pattern2_cont1_shape2.png	2	2	1	2	1	3	0	0	0	0	0	0	0	0	0	0	0	0	1	25
180.05322265625	0.100004779922529	368749	266	12	stim12_sf2_pattern2_cont1_shape1.png	1	98	0	423.933425354175	424.033430134097	0.100004779922529	stim12_sf2_pattern2_cont1_shape1.png	2	2	1	1	1	2	0	0	0	0	0	0	0	0	0	0	0	0	1	25
180.55322265625	0.100000087973967	369773	267	8	stim08_sf2_pattern1_cont1_shape1.png	1	99	0	424.433423741319	424.533423829293	0.100000087973967	stim08_sf2_pattern1_cont1_shape1.png	2	1	1	1	1	4	0	0	0	0	0	0	0	0	0	0	0	0	1	25
181.05322265625	0.100034397848503	370797	268	5	stim05_sf1_pattern2_cont1_shape2.png	1	100	0	424.933382540145	425.033416937993	0.100034397848503	stim05_sf1_pattern2_cont1_shape2.png	1	2	1	2	1	3	0	0	0	0	0	0	0	0	0	0	0	0	1	25
181.55322265625	0.0999754552431114	371821	269	7	stim07_sf1_pattern2_cont2_shape2.png	1	101	0	425.433408199238	425.533383654481	0.0999754552431114	stim07_sf1_pattern2_cont2_shape2.png	1	2	2	2	1	3	0	0	0	0	0	0	0	0	0	0	0	0	1	25
182.05322265625	0.100005073169086	372845	270	13	stim13_sf2_pattern2_cont1_shape2.png	1	102	0	425.933393683523	426.033398756692	0.100005073169086	stim13_sf2_pattern2_cont1_shape2.png	2	2	1	2	1	3	0	0	0	0	0	0	0	0	0	0	0	0	1	25
182.55322265625	0.0999959825185215	373869	271	15	stim15_sf2_pattern2_cont2_shape2.png	1	103	0	426.433398228848	426.533394211367	0.0999959825185215	stim15_sf2_pattern2_cont2_shape2.png	2	2	2	2	1	3	0	0	0	0	0	0	0	0	0	0	0	0	1	25
183.05322265625	0.10000331368974	374893	272	1	stim01_sf1_pattern1_cont1_shape2.png	1	104	0	426.933379607675	427.033382921365	0.10000331368974	stim01_sf1_pattern1_cont1_shape2.png	1	1	1	2	1	1	0	0	0	0	0	0	0	0	0	0	0	0	1	25
183.55322265625	0.0999951027788484	375917	273	9	stim09_sf2_pattern1_cont1_shape2.png	1	105	0	427.433380927287	427.533376030065	0.0999951027788484	stim09_sf2_pattern1_cont1_shape2.png	2	1	1	2	1	1	0	0	0	0	0	0	0	0	0	0	0	0	1	25
184.05322265625	0.100018269275097	376941	274	2	stim02_sf1_pattern1_cont2_shape1.png	1	106	0	427.93334911001	428.033367379285	0.100018269275097	stim02_sf1_pattern1_cont2_shape1.png	1	1	2	1	1	4	0	0	0	0	0	0	0	0	0	0	0	0	1	25
184.55322265625	0.099964018620085	377965	275	11	stim11_sf2_pattern1_cont2_shape2.png	1	107	0	428.433368317674	428.533332336294	0.099964018620085	stim11_sf2_pattern1_cont2_shape2.png	2	1	2	2	1	1	0	0	0	0	0	0	0	0	0	0	0	0	1	25
185.05322265625	0.0999816134262801	378989	276	0	stim00_sf1_pattern1_cont1_shape1.png	1	108	0	428.933355268193	429.033336881619	0.0999816134262801	stim00_sf1_pattern1_cont1_shape1.png	1	1	1	1	1	4	0	0	0	0	0	0	0	0	0	0	0	0	1	25
185.55322265625	0.0999980352462444	380013	277	14	stim14_sf2_pattern2_cont2_shape1.png	1	109	0	429.433331075332	429.533329110578	0.0999980352462444	stim14_sf2_pattern2_cont2_shape1.png	2	2	2	1	1	2	0	0	0	0	0	0	0	0	0	0	0	0	1	25
186.05322265625	0.100001847455133	381037	278	3	stim03_sf1_pattern1_cont2_shape2.png	1	110	0	429.933315093382	430.033316940837	0.100001847455133	stim03_sf1_pattern1_cont2_shape2.png	1	1	2	2	1	1	0	0	0	0	0	0	0	0	0	0	0	0	1	25
186.55322265625	0.0999992082342942	382061	279	12	stim12_sf2_pattern2_cont1_shape1.png	1	111	0	430.433312894031	430.533312102265	0.0999992082342942	stim12_sf2_pattern2_cont1_shape1.png	2	2	1	1	1	2	0	0	0	0	0	0	0	0	0	0	0	0	1	25
187.05322265625	0.100003020441363	383085	280	8	stim08_sf2_pattern1_cont1_shape1.png	1	112	0	430.933300724289	431.033303744731	0.100003020441363	stim08_sf2_pattern1_cont1_shape1.png	2	1	1	1	1	4	0	0	0	0	0	0	0	0	0	0	0	0	1	25
187.55322265625	0.0999763349846035	384109	281	10	stim10_sf2_pattern1_cont2_shape1.png	1	113	0	431.433301750652	431.533278085637	0.0999763349846035	stim10_sf2_pattern1_cont2_shape1.png	2	1	2	1	1	4	0	0	0	0	0	0	0	0	0	0	0	0	1	25
188.05322265625	0.10002032200282	385133	282	6	stim06_sf1_pattern2_cont2_shape1.png	1	114	0	431.933271986103	432.033292308106	0.10002032200282	stim06_sf1_pattern2_cont2_shape1.png	1	2	2	1	1	2	0	0	0	0	0	0	0	0	0	0	0	0	1	25
188.55322265625	0.0999833729056263	386157	283	4	stim04_sf1_pattern2_cont1_shape1.png	1	115	0	432.433288554548	432.533271927454	0.0999833729056263	stim04_sf1_pattern2_cont1_shape1.png	1	2	1	1	1	2	0	0	0	0	0	0	0	0	0	0	0	0	1	25
189.05322265625	0.100009178624532	387181	284	3	stim03_sf1_pattern1_cont2_shape2.png	1	116	0	432.933280783507	433.033289962132	0.100009178624532	stim03_sf1_pattern1_cont2_shape2.png	1	1	2	2	1	1	0	0	0	0	0	0	0	0	0	0	0	0	1	25
189.55322265625	0.100000381220525	388205	285	6	stim06_sf1_pattern2_cont2_shape1.png	1	117	0	433.433300870913	433.533301252133	0.100000381220525	stim06_sf1_pattern2_cont2_shape1.png	1	2	2	1	1	2	0	0	0	0	0	0	0	0	0	0	0	0	1	25
190.05322265625	0.0999936365442409	389229	286	14	stim14_sf2_pattern2_cont2_shape1.png	1	118	0	433.933296618834	434.033290255378	0.0999936365442409	stim14_sf2_pattern2_cont2_shape1.png	2	2	2	1	1	2	0	0	0	0	0	0	0	0	0	0	0	0	1	25
190.55322265625	0.0999948095304717	390253	287	9	stim09_sf2_pattern1_cont1_shape2.png	1	119	0	434.433277117923	434.533271927454	0.0999948095304717	stim09_sf2_pattern1_cont1_shape2.png	2	1	1	2	1	1	0	0	0	0	0	0	0	0	0	0	0	0	1	25
191.05322265625	0.100006539403694	391277	288	12	stim12_sf2_pattern2_cont1_shape1.png	1	120	0	434.933260256232	435.033266795635	0.100006539403694	stim12_sf2_pattern2_cont1_shape1.png	2	2	1	1	1	2	0	0	0	0	0	0	0	0	0	0	0	0	1	25
191.552734375	0.0999980352462444	392300	289	7	stim07_sf1_pattern2_cont2_shape2.png	1	121	0	435.433271546233	435.53326958148	0.0999980352462444	stim07_sf1_pattern2_cont2_shape2.png	1	2	2	2	1	3	0	0	0	0	0	0	0	0	0	0	0	0	1	25
192.052734375	0.100006539403694	393324	290	0	stim00_sf1_pattern1_cont1_shape1.png	1	122	0	435.933245887139	436.033252426543	0.100006539403694	stim00_sf1_pattern1_cont1_shape1.png	1	1	1	1	1	4	0	0	0	0	0	0	0	0	0	0	0	0	1	25
192.552734375	0.0999863053748413	394348	291	5	stim05_sf1_pattern2_cont1_shape2.png	1	123	0	436.433255710906	436.533242016281	0.0999863053748413	stim05_sf1_pattern2_cont1_shape2.png	1	2	1	2	1	3	0	0	0	0	0	0	0	0	0	0	0	0	1	25
193.052734375	0.100007125896809	395372	292	15	stim15_sf2_pattern2_cont2_shape2.png	1	124	0	436.933230345059	437.033237470956	0.100007125896809	stim15_sf2_pattern2_cont2_shape2.png	2	2	2	2	1	3	0	0	0	0	0	0	0	0	0	0	0	0	1	25
193.552734375	0.0999968622600136	396396	293	11	stim11_sf2_pattern1_cont2_shape2.png	1	125	0	437.433232251164	437.533229113424	0.0999968622600136	stim11_sf2_pattern1_cont2_shape2.png	2	1	2	2	1	1	0	0	0	0	0	0	0	0	0	0	0	0	1	25
194.052734375	0.100002727196625	397420	294	8	stim08_sf2_pattern1_cont1_shape1.png	1	126	0	437.933225946357	438.033228673554	0.100002727196625	stim08_sf2_pattern1_cont1_shape1.png	2	1	1	1	1	4	0	0	0	0	0	0	0	0	0	0	0	0	1	25
194.552734375	0.0999995014808519	398444	295	13	stim13_sf2_pattern2_cont1_shape2.png	1	127	0	438.43321700233	438.533216503811	0.0999995014808519	stim13_sf2_pattern2_cont1_shape2.png	2	2	1	2	1	3	0	0	0	0	0	0	0	0	0	0	0	0	1	25
195.052734375	0.0999959825185215	399468	296	1	stim01_sf1_pattern1_cont1_shape2.png	1	128	0	438.933210697525	439.033206680044	0.0999959825185215	stim01_sf1_pattern1_cont1_shape2.png	1	1	1	2	1	1	0	0	0	0	0	0	0	0	0	0	0	0	1	25
195.552734375	0.0999980352462444	400492	297	4	stim04_sf1_pattern2_cont1_shape1.png	1	129	0	439.433201167005	439.533199202251	0.0999980352462444	stim04_sf1_pattern2_cont1_shape1.png	1	2	1	1	1	2	0	0	0	0	0	0	0	0	0	0	0	0	1	25
196.052734375	0.0999962757668982	401516	298	10	stim10_sf2_pattern1_cont2_shape1.png	1	130	0	439.933196035185	440.033192310952	0.0999962757668982	stim10_sf2_pattern1_cont2_shape1.png	2	1	2	1	1	4	0	0	0	0	0	0	0	0	0	0	0	0	1	25
196.552734375	0.0999939297907986	402540	299	2	stim02_sf1_pattern1_cont2_shape1.png	1	131	0	440.433190903366	440.533184833157	0.0999939297907986	stim02_sf1_pattern1_cont2_shape1.png	1	1	2	1	1	4	0	0	0	0	0	0	0	0	0	0	0	0	1	25
197.052734375	0.10000331368974	403564	300	15	stim15_sf2_pattern2_cont2_shape2.png	1	132	0	440.933172868688	441.033176182378	0.10000331368974	stim15_sf2_pattern2_cont2_shape2.png	2	2	2	2	1	3	0	0	0	0	0	0	0	0	0	0	0	0	1	25
197.552734375	0.0999719362825999	404588	301	12	stim12_sf2_pattern2_cont1_shape1.png	1	133	0	441.433171842325	441.533143778608	0.0999719362825999	stim12_sf2_pattern2_cont1_shape1.png	2	2	1	1	1	2	0	0	0	0	0	0	0	0	0	0	0	0	1	25
198.052734375	0.099997448753129	405612	302	14	stim14_sf2_pattern2_cont2_shape1.png	1	134	0	441.933162018557	442.03315946731	0.099997448753129	stim14_sf2_pattern2_cont2_shape1.png	2	2	2	1	1	2	0	0	0	0	0	0	0	0	0	0	0	0	1	25
198.552734375	0.10000096771364	406636	303	2	stim02_sf1_pattern1_cont2_shape1.png	1	135	0	442.433153661024	442.533154628738	0.10000096771364	stim02_sf1_pattern1_cont2_shape1.png	1	1	2	1	1	4	0	0	0	0	0	0	0	0	0	0	0	0	1	25
199.052734375	0.100006246157136	407660	304	8	stim08_sf2_pattern1_cont1_shape1.png	1	136	0	442.933137972321	443.033144218478	0.100006246157136	stim08_sf2_pattern1_cont1_shape1.png	2	1	1	1	1	4	0	0	0	0	0	0	0	0	0	0	0	0	1	25
199.552734375	0.0999965690134559	408684	305	11	stim11_sf2_pattern1_cont2_shape2.png	1	137	0	443.433138705437	443.533135274451	0.0999965690134559	stim11_sf2_pattern1_cont2_shape2.png	2	1	2	2	1	1	0	0	0	0	0	0	0	0	0	0	0	0	1	25
200.052734375	0.100013870573093	409708	306	3	stim03_sf1_pattern1_cont2_shape2.png	1	138	0	443.933121550501	444.033135421074	0.100013870573093	stim03_sf1_pattern1_cont2_shape2.png	1	1	2	2	1	1	0	0	0	0	0	0	0	0	0	0	0	0	1	25
200.552734375	0.0999681240737118	410732	307	13	stim13_sf2_pattern2_cont1_shape2.png	1	139	0	444.433113192967	444.53308131704	0.0999681240737118	stim13_sf2_pattern2_cont1_shape2.png	2	2	1	2	1	3	0	0	0	0	0	0	0	0	0	0	0	0	1	25
201.052734375	0.0999956892719638	411756	308	5	stim05_sf1_pattern2_cont1_shape2.png	1	140	0	444.933098970498	445.03309465977	0.0999956892719638	stim05_sf1_pattern2_cont1_shape2.png	1	2	1	2	1	3	0	0	0	0	0	0	0	0	0	0	0	0	1	25
201.552734375	0.100016803040489	412780	309	7	stim07_sf1_pattern2_cont2_shape2.png	1	141	0	445.433068619455	445.533085422496	0.100016803040489	stim07_sf1_pattern2_cont2_shape2.png	1	2	2	2	1	3	0	0	0	0	0	0	0	0	0	0	0	0	1	25
202.052734375	0.0999953960254061	413804	310	1	stim01_sf1_pattern1_cont1_shape2.png	1	142	0	445.933084308159	446.033079704184	0.0999953960254061	stim01_sf1_pattern1_cont1_shape2.png	1	1	1	2	1	1	0	0	0	0	0	0	0	0	0	0	0	0	1	25
202.552734375	0.0999959825185215	414828	311	6	stim06_sf1_pattern2_cont2_shape1.png	1	143	0	446.433075950625	446.533071933143	0.0999959825185215	stim06_sf1_pattern2_cont2_shape1.png	1	2	2	1	1	2	0	0	0	0	0	0	0	0	0	0	0	0	1	25
203.052734375	0.10000214070169	415852	312	9	stim09_sf2_pattern1_cont1_shape2.png	1	144	0	446.933065540363	447.033067681064	0.10000214070169	stim09_sf2_pattern1_cont1_shape2.png	2	1	1	2	1	1	0	0	0	0	0	0	0	0	0	0	0	0	1	25
203.552734375	0.0999965690134559	416876	313	10	stim10_sf2_pattern1_cont2_shape1.png	1	145	0	447.433069205948	447.533065774962	0.0999965690134559	stim10_sf2_pattern1_cont2_shape1.png	2	1	2	1	1	4	0	0	0	0	0	0	0	0	0	0	0	0	1	25
204.052734375	0.0999927568045678	417900	314	4	stim04_sf1_pattern2_cont1_shape1.png	1	146	0	447.933056449712	448.033049206517	0.0999927568045678	stim04_sf1_pattern2_cont1_shape1.png	1	2	1	1	1	2	0	0	0	0	0	0	0	0	0	0	0	0	1	25
204.552734375	0.100012697585043	418924	315	0	stim00_sf1_pattern1_cont1_shape1.png	1	147	0	448.433061581532	448.533074279117	0.100012697585043	stim00_sf1_pattern1_cont1_shape1.png	1	1	1	1	1	4	0	0	0	0	0	0	0	0	0	0	0	0	1	25
205.052734375	0.100011524598813	419948	316	15	stim15_sf2_pattern2_cont2_shape2.png	1	148	0	448.933057329454	449.033068854053	0.100011524598813	stim15_sf2_pattern2_cont2_shape2.png	2	2	2	2	1	3	0	0	0	0	0	0	0	0	0	0	0	0	1	25
205.552734375	0.0999959825203405	420972	317	11	stim11_sf2_pattern1_cont2_shape2.png	1	149	0	449.433063047765	449.533059030286	0.0999959825203405	stim11_sf2_pattern1_cont2_shape2.png	2	1	2	2	1	1	0	0	0	0	0	0	0	0	0	0	0	0	1	25
206.052734375	0.100010938105697	421996	318	3	stim03_sf1_pattern1_cont2_shape2.png	1	150	0	449.933034456204	450.03304539431	0.100010938105697	stim03_sf1_pattern1_cont2_shape2.png	1	1	2	2	1	1	0	0	0	0	0	0	0	0	0	0	0	0	1	25
206.552734375	0.10000096771364	423020	319	5	stim05_sf1_pattern2_cont1_shape2.png	1	151	0	450.433034602827	450.533035570541	0.10000096771364	stim05_sf1_pattern2_cont1_shape2.png	1	2	1	2	1	3	0	0	0	0	0	0	0	0	0	0	0	0	1	25
207.052734375	0.100010351610763	424044	320	0	stim00_sf1_pattern1_cont1_shape1.png	1	152	0	450.933015395163	451.033025746774	0.100010351610763	stim00_sf1_pattern1_cont1_shape1.png	1	1	1	1	1	4	0	0	0	0	0	0	0	0	0	0	0	0	1	25
207.552734375	0.0999977419996867	425068	321	14	stim14_sf2_pattern2_cont2_shape1.png	1	153	0	451.433021113475	451.533018855474	0.0999977419996867	stim14_sf2_pattern2_cont2_shape1.png	2	2	2	1	1	2	0	0	0	0	0	0	0	0	0	0	0	0	1	25
208.052734375	0.09999744875131	426092	322	10	stim10_sf2_pattern1_cont2_shape1.png	1	154	0	451.933015395163	452.033012843915	0.09999744875131	stim10_sf2_pattern1_cont2_shape1.png	2	1	2	1	1	4	0	0	0	0	0	0	0	0	0	0	0	0	1	25
208.552734375	0.0999901175819105	427116	323	6	stim06_sf1_pattern2_cont2_shape1.png	1	155	0	452.433015541787	452.533005659368	0.0999901175819105	stim06_sf1_pattern2_cont2_shape1.png	1	2	2	1	1	2	0	0	0	0	0	0	0	0	0	0	0	0	1	25
209.05224609375	0.100006832650251	428139	324	13	stim13_sf2_pattern2_cont1_shape2.png	1	156	0	452.932990469186	453.032997301836	0.100006832650251	stim13_sf2_pattern2_cont1_shape2.png	2	2	1	2	1	3	0	0	0	0	0	0	0	0	0	0	0	0	1	25
209.55224609375	0.0999977419996867	429163	325	7	stim07_sf1_pattern2_cont2_shape2.png	1	157	0	453.432992668537	453.532990410537	0.0999977419996867	stim07_sf1_pattern2_cont2_shape2.png	1	2	2	2	1	3	0	0	0	0	0	0	0	0	0	0	0	0	1	25
210.05224609375	0.100005952908759	430187	326	8	stim08_sf2_pattern1_cont1_shape1.png	1	158	0	453.932971994638	454.032977947547	0.100005952908759	stim08_sf2_pattern1_cont1_shape1.png	2	1	1	1	1	4	0	0	0	0	0	0	0	0	0	0	0	0	1	25
210.55224609375	0.0999992082342942	431211	327	12	stim12_sf2_pattern2_cont1_shape1.png	1	159	0	454.432977419703	454.532976627937	0.0999992082342942	stim12_sf2_pattern2_cont1_shape1.png	2	2	1	1	1	2	0	0	0	0	0	0	0	0	0	0	0	0	1	25
211.05224609375	0.100015336807701	432235	328	4	stim04_sf1_pattern2_cont1_shape1.png	1	160	0	454.932952347102	455.03296768391	0.100015336807701	stim04_sf1_pattern2_cont1_shape1.png	1	2	1	1	1	2	0	0	0	0	0	0	0	0	0	0	0	0	1	25
211.55224609375	0.100000381220525	433259	329	1	stim01_sf1_pattern1_cont1_shape2.png	1	161	0	455.432961877623	455.532962258843	0.100000381220525	stim01_sf1_pattern1_cont1_shape2.png	1	1	1	2	1	1	0	0	0	0	0	0	0	0	0	0	0	0	1	25
212.05224609375	0.0999986217393598	434283	330	9	stim09_sf2_pattern1_cont1_shape2.png	1	162	0	455.932957039051	456.03295566079	0.0999986217393598	stim09_sf2_pattern1_cont1_shape2.png	2	1	1	2	1	1	0	0	0	0	0	0	0	0	0	0	0	0	1	25
212.55224609375	0.0999951027788484	435307	331	2	stim02_sf1_pattern1_cont2_shape1.png	1	163	0	456.432949854505	456.532944957284	0.0999951027788484	stim02_sf1_pattern1_cont2_shape1.png	1	1	2	1	1	4	0	0	0	0	0	0	0	0	0	0	0	0	1	25
225.59375	0.0999440778377902	462016	332	7	stim07_sf1_pattern2_cont2_shape2.png	2	0	0	469.474430492739	469.574374570577	0.0999440778377902	stim07_sf1_pattern2_cont2_shape2.png	1	2	2	2	1	3	0	0	0	0	0	0	0	0	0	0	0	0	1	25
226.09375	0.099997448753129	463040	333	12	stim12_sf2_pattern2_cont1_shape1.png	2	1	0	469.974398382215	470.074395830969	0.099997448753129	stim12_sf2_pattern2_cont1_shape1.png	2	2	1	1	1	2	0	0	0	0	0	0	0	0	0	0	0	0	1	25
226.59375	0.0999860121282836	464064	334	2	stim02_sf1_pattern1_cont2_shape1.png	2	2	0	470.474382986758	470.574368998887	0.0999860121282836	stim02_sf1_pattern1_cont2_shape1.png	1	1	2	1	1	4	0	0	0	0	0	0	0	0	0	0	0	0	1	25
227.09375	0.0999877716094488	465088	335	15	stim15_sf2_pattern2_cont2_shape2.png	2	3	0	470.97437140351	471.07435917512	0.0999877716094488	stim15_sf2_pattern2_cont2_shape2.png	2	2	2	2	1	3	0	0	0	0	0	0	0	0	0	0	0	0	1	25
227.59375	0.0999766282311612	466112	336	14	stim14_sf2_pattern2_cont2_shape1.png	2	4	0	471.47436832442	471.574344952651	0.0999766282311612	stim14_sf2_pattern2_cont2_shape1.png	2	2	2	1	1	2	0	0	0	0	0	0	0	0	0	0	0	0	1	25
228.09375	0.0999833729056263	467136	337	9	stim09_sf2_pattern1_cont1_shape2.png	2	5	0	471.974360846627	472.074344219533	0.0999833729056263	stim09_sf2_pattern1_cont1_shape2.png	2	1	1	2	1	1	0	0	0	0	0	0	0	0	0	0	0	0	1	25
228.59375	0.099980733686607	468160	338	10	stim10_sf2_pattern1_cont2_shape1.png	2	6	0	472.474354835067	472.574335568754	0.099980733686607	stim10_sf2_pattern1_cont2_shape1.png	2	1	2	1	1	4	0	0	0	0	0	0	0	0	0	0	0	0	1	25
229.09375	0.100029119405008	469184	339	4	stim04_sf1_pattern2_cont1_shape1.png	2	7	0	472.97431949883	473.074348618235	0.100029119405008	stim04_sf1_pattern2_cont1_shape1.png	1	2	1	1	1	2	0	0	0	0	0	0	0	0	0	0	0	0	1	25
229.59375	0.0999997947274096	470208	340	1	stim01_sf1_pattern1_cont1_shape2.png	2	8	0	473.474343398442	473.57434319317	0.0999997947274096	stim01_sf1_pattern1_cont1_shape2.png	1	1	1	2	1	1	0	0	0	0	0	0	0	0	0	0	0	0	1	25
230.09375	0.100003900182855	471232	341	8	stim08_sf2_pattern1_cont1_shape1.png	2	9	0	473.974337680129	474.074341580312	0.100003900182855	stim08_sf2_pattern1_cont1_shape1.png	2	1	1	1	1	4	0	0	0	0	0	0	0	0	0	0	0	0	1	25
230.59375	0.0999959825185215	472256	342	6	stim06_sf1_pattern2_cont2_shape1.png	2	10	0	474.474351609353	474.574347591872	0.0999959825185215	stim06_sf1_pattern2_cont2_shape1.png	1	2	2	1	1	2	0	0	0	0	0	0	0	0	0	0	0	0	1	25
231.09375	0.100004486675971	473280	343	3	stim03_sf1_pattern1_cont2_shape2.png	2	11	0	474.974341199091	475.074345685767	0.100004486675971	stim03_sf1_pattern1_cont2_shape2.png	1	1	2	2	1	1	0	0	0	0	0	0	0	0	0	0	0	0	1	25
231.59375	0.100000381220525	474304	344	5	stim05_sf1_pattern2_cont1_shape2.png	2	12	0	475.474329615843	475.574329997064	0.100000381220525	stim05_sf1_pattern2_cont1_shape2.png	1	2	1	2	1	3	0	0	0	0	0	0	0	0	0	0	0	0	1	25
232.09326171875	0.100003900182855	475327	345	11	stim11_sf2_pattern1_cont2_shape2.png	2	13	0	475.974318619088	476.074322519271	0.100003900182855	stim11_sf2_pattern1_cont2_shape2.png	2	1	2	2	1	1	0	0	0	0	0	0	0	0	0	0	0	0	1	25
232.59326171875	0.100003606936298	476351	346	13	stim13_sf2_pattern2_cont1_shape2.png	2	14	0	476.474322871167	476.574326478103	0.100003606936298	stim13_sf2_pattern2_cont1_shape2.png	2	2	1	2	1	3	0	0	0	0	0	0	0	0	0	0	0	0	1	25
233.09326171875	0.100003900181036	477375	347	0	stim00_sf1_pattern1_cont1_shape1.png	2	15	0	476.974303663503	477.074307563684	0.100003900181036	stim00_sf1_pattern1_cont1_shape1.png	1	1	1	1	1	4	0	0	0	0	0	0	0	0	0	0	0	0	1	25
233.59326171875	0.099989531090614	478399	348	3	stim03_sf1_pattern1_cont2_shape2.png	2	16	0	477.47430791558	477.57429744667	0.099989531090614	stim03_sf1_pattern1_cont2_shape2.png	1	1	2	2	1	1	0	0	0	0	0	0	0	0	0	0	0	0	1	25
234.09326171875	0.0999980352462444	479423	349	5	stim05_sf1_pattern2_cont1_shape2.png	2	17	0	477.974289294409	478.074287329655	0.0999980352462444	stim05_sf1_pattern2_cont1_shape2.png	1	2	1	2	1	3	0	0	0	0	0	0	0	0	0	0	0	0	1	25
234.59326171875	0.0999956892719638	480447	350	11	stim11_sf2_pattern1_cont2_shape2.png	2	18	0	478.474287681553	478.574283370825	0.0999956892719638	stim11_sf2_pattern1_cont2_shape2.png	2	1	2	2	1	1	0	0	0	0	0	0	0	0	0	0	0	0	1	25
235.09326171875	0.099994516283914	481471	351	7	stim07_sf1_pattern2_cont2_shape2.png	2	19	0	478.974281376746	479.07427589303	0.099994516283914	stim07_sf1_pattern2_cont2_shape2.png	1	2	2	2	1	3	0	0	0	0	0	0	0	0	0	0	0	0	1	25
235.59326171875	0.0999995014790329	482495	352	2	stim02_sf1_pattern1_cont2_shape1.png	2	20	0	479.474271552979	479.574271054458	0.0999995014790329	stim02_sf1_pattern1_cont2_shape1.png	1	1	2	1	1	4	0	0	0	0	0	0	0	0	0	0	0	0	1	25
236.09326171875	0.100002727194806	483519	353	0	stim00_sf1_pattern1_cont1_shape1.png	2	21	0	479.97425821025	480.074260937445	0.100002727194806	stim00_sf1_pattern1_cont1_shape1.png	1	1	1	1	1	4	0	0	0	0	0	0	0	0	0	0	0	0	1	25
236.59326171875	0.099997448753129	484543	354	14	stim14_sf2_pattern2_cont2_shape1.png	2	22	0	480.474256304145	480.574253752899	0.099997448753129	stim14_sf2_pattern2_cont2_shape1.png	2	2	2	1	1	2	0	0	0	0	0	0	0	0	0	0	0	0	1	25
237.09326171875	0.0999956892719638	485567	355	1	stim01_sf1_pattern1_cont1_shape2.png	2	23	0	480.974251172327	481.074246861599	0.0999956892719638	stim01_sf1_pattern1_cont1_shape2.png	1	1	1	2	1	1	0	0	0	0	0	0	0	0	0	0	0	0	1	25
237.59326171875	0.0999986217393598	486591	356	13	stim13_sf2_pattern2_cont1_shape2.png	2	24	0	481.474240468819	481.574239090558	0.0999986217393598	stim13_sf2_pattern2_cont1_shape2.png	2	2	1	2	1	3	0	0	0	0	0	0	0	0	0	0	0	0	1	25
238.09326171875	0.100004486675971	487615	357	15	stim15_sf2_pattern2_cont2_shape2.png	2	25	0	481.974227419336	482.074231906012	0.100004486675971	stim15_sf2_pattern2_cont2_shape2.png	2	2	2	2	1	3	0	0	0	0	0	0	0	0	0	0	0	0	1	25
238.59326171875	0.0999927568045678	488639	358	9	stim09_sf2_pattern1_cont1_shape2.png	2	26	0	482.474229618687	482.574222375491	0.0999927568045678	stim09_sf2_pattern1_cont1_shape2.png	2	1	1	2	1	1	0	0	0	0	0	0	0	0	0	0	0	0	1	25
239.09326171875	0.100003900182855	489663	359	6	stim06_sf1_pattern2_cont2_shape1.png	2	27	0	482.974212756997	483.07421665718	0.100003900182855	stim06_sf1_pattern2_cont2_shape1.png	1	2	2	1	1	2	0	0	0	0	0	0	0	0	0	0	0	0	1	25
239.59326171875	0.10000096771364	490687	360	4	stim04_sf1_pattern2_cont1_shape1.png	2	28	1	483.474212317127	483.574213284841	0.10000096771364	stim04_sf1_pattern2_cont1_shape1.png	1	2	1	1	1	2	0	0	0	0	0	0	0	0	0	0	0	0	1	25
240.09326171875	0.100003313687921	491711	361	4	stim04_sf1_pattern2_cont1_shape1.png	2	29	1	483.974193695956	484.074197009644	0.100003313687921	stim04_sf1_pattern2_cont1_shape1.png	1	2	1	1	1	2	0	0	0	0	0	0	0	0	0	0	0	0	1	25
240.59326171875	0.0999681240737118	492735	362	5	stim05_sf1_pattern2_cont1_shape2.png	2	30	2	484.474182112708	484.574150236782	0.0999681240737118	stim05_sf1_pattern2_cont1_shape2.png	1	2	1	2	1	3	0	0	0	0	0	0	0	0	0	0	0	0	1	25
241.09326171875	0.100002727194806	493759	363	13	stim13_sf2_pattern2_cont1_shape2.png	2	31	2	484.974162611796	485.07416533899	0.100002727194806	stim13_sf2_pattern2_cont1_shape2.png	2	2	1	2	1	3	0	0	0	0	0	0	0	0	0	0	0	0	1	25
241.59326171875	0.0999692970599426	494783	364	8	stim08_sf2_pattern1_cont1_shape1.png	2	32	0	485.474168623356	485.574137920416	0.0999692970599426	stim08_sf2_pattern1_cont1_shape1.png	2	1	1	1	1	4	0	0	0	0	0	0	0	0	0	0	0	0	1	25
242.09326171875	0.0999739890085038	495807	365	12	stim12_sf2_pattern2_cont1_shape1.png	2	33	0	485.974154400887	486.074128389895	0.0999739890085038	stim12_sf2_pattern2_cont1_shape1.png	2	2	1	1	1	2	0	0	0	0	0	0	0	0	0	0	0	0	1	25
242.59326171875	0.0999766282311612	496831	366	10	stim10_sf2_pattern1_cont2_shape1.png	2	34	0	486.474145750106	486.574122378337	0.0999766282311612	stim10_sf2_pattern1_cont2_shape1.png	2	1	2	1	1	4	0	0	0	0	0	0	0	0	0	0	0	0	1	25
243.09326171875	0.0999687105668272	497855	367	4	stim04_sf1_pattern2_cont1_shape1.png	2	35	0	486.974145310236	487.074114020803	0.0999687105668272	stim04_sf1_pattern2_cont1_shape1.png	1	2	1	1	1	2	0	0	0	0	0	0	0	0	0	0	0	0	1	25
243.59326171875	0.100013577324717	498879	368	2	stim02_sf1_pattern1_cont2_shape1.png	2	36	0	487.474099417113	487.574112994438	0.100013577324717	stim02_sf1_pattern1_cont2_shape1.png	1	1	2	1	1	4	0	0	0	0	0	0	0	0	0	0	0	0	1	25
244.09326171875	0.100000381220525	499903	369	12	stim12_sf2_pattern2_cont1_shape1.png	2	37	0	487.974127422181	488.074127803402	0.100000381220525	stim12_sf2_pattern2_cont1_shape1.png	2	2	1	1	1	2	0	0	0	0	0	0	0	0	0	0	0	0	1	25
244.59326171875	0.100062256293313	500927	370	13	stim13_sf2_pattern2_cont1_shape2.png	2	38	0	488.474130794519	488.574193050812	0.100062256293313	stim13_sf2_pattern2_cont1_shape2.png	2	2	1	2	1	3	0	0	0	0	0	0	0	0	0	0	0	0	1	25
245.09326171875	0.100026186939431	501951	371	10	stim10_sf2_pattern1_cont2_shape1.png	2	39	0	488.974089886591	489.074116073531	0.100026186939431	stim10_sf2_pattern1_cont2_shape1.png	2	1	2	1	1	4	0	0	0	0	0	0	0	0	0	0	0	0	1	25
245.59326171875	0.0999927568045678	502975	372	11	stim11_sf2_pattern1_cont2_shape2.png	2	40	0	489.474121410622	489.574114167426	0.0999927568045678	stim11_sf2_pattern1_cont2_shape2.png	2	1	2	2	1	1	0	0	0	0	0	0	0	0	0	0	0	0	1	25
246.09326171875	0.100006246157136	503999	373	9	stim09_sf2_pattern1_cont1_shape2.png	2	41	0	489.974118918024	490.074125164181	0.100006246157136	stim09_sf2_pattern1_cont1_shape2.png	2	1	1	2	1	1	0	0	0	0	0	0	0	0	0	0	0	0	1	25
246.59326171875	0.100006246157136	505023	374	6	stim06_sf1_pattern2_cont2_shape1.png	2	42	0	490.474098537372	490.574104783529	0.100006246157136	stim06_sf1_pattern2_cont2_shape1.png	1	2	2	1	1	2	0	0	0	0	0	0	0	0	0	0	0	0	1	25
247.09326171875	0.0999939297907986	506047	375	8	stim08_sf2_pattern1_cont1_shape1.png	2	43	0	490.974104548932	491.074098478723	0.0999939297907986	stim08_sf2_pattern1_cont1_shape1.png	2	1	1	1	1	4	0	0	0	0	0	0	0	0	0	0	0	0	1	25
247.59326171875	0.0999956892719638	507071	376	4	stim04_sf1_pattern2_cont1_shape1.png	2	44	0	491.474095604905	491.574091294176	0.0999956892719638	stim04_sf1_pattern2_cont1_shape1.png	1	2	1	1	1	2	0	0	0	0	0	0	0	0	0	0	0	0	1	25
248.09326171875	0.100005952910578	508095	377	15	stim15_sf2_pattern2_cont2_shape2.png	2	45	0	491.974089300098	492.074095253009	0.100005952910578	stim15_sf2_pattern2_cont2_shape2.png	2	2	2	2	1	3	0	0	0	0	0	0	0	0	0	0	0	0	1	25
248.59326171875	0.0999989149877365	509119	378	0	stim00_sf1_pattern1_cont1_shape1.png	2	46	0	492.474078303343	492.574077218331	0.0999989149877365	stim00_sf1_pattern1_cont1_shape1.png	1	1	1	1	1	4	0	0	0	0	0	0	0	0	0	0	0	0	1	25
249.09326171875	0.0999857188817259	510143	379	3	stim03_sf1_pattern1_cont2_shape2.png	2	47	0	492.974083141915	493.074068860797	0.0999857188817259	stim03_sf1_pattern1_cont2_shape2.png	1	1	2	2	1	1	0	0	0	0	0	0	0	0	0	0	0	0	1	25
249.5927734375	0.0999904108302871	511166	380	1	stim01_sf1_pattern1_cont1_shape2.png	2	48	0	493.474071851913	493.574062262744	0.0999904108302871	stim01_sf1_pattern1_cont1_shape2.png	1	1	1	2	1	1	0	0	0	0	0	0	0	0	0	0	0	0	1	25
250.0927734375	0.0999992082342942	512190	381	7	stim07_sf1_pattern2_cont2_shape2.png	2	49	0	493.974052351003	494.074051559237	0.0999992082342942	stim07_sf1_pattern2_cont2_shape2.png	1	2	2	2	1	3	0	0	0	0	0	0	0	0	0	0	0	0	1	25
250.5927734375	0.0999953960254061	513214	382	14	stim14_sf2_pattern2_cont2_shape1.png	2	50	0	494.474055136847	494.574050532872	0.0999953960254061	stim14_sf2_pattern2_cont2_shape1.png	2	2	2	1	1	2	0	0	0	0	0	0	0	0	0	0	0	0	1	25
251.0927734375	0.100000381220525	514238	383	5	stim05_sf1_pattern2_cont1_shape2.png	2	51	0	494.974039154897	495.074039536117	0.100000381220525	stim05_sf1_pattern2_cont1_shape2.png	1	2	1	2	1	3	0	0	0	0	0	0	0	0	0	0	0	0	1	25
251.5927734375	0.100024720703004	515262	384	1	stim01_sf1_pattern1_cont1_shape2.png	2	52	0	495.474009976842	495.574034697545	0.100024720703004	stim01_sf1_pattern1_cont1_shape2.png	1	1	1	2	1	1	0	0	0	0	0	0	0	0	0	0	0	0	1	25
252.0927734375	0.100003606936298	516286	385	0	stim00_sf1_pattern1_cont1_shape1.png	2	53	0	495.974020387102	496.074023994039	0.100003606936298	stim00_sf1_pattern1_cont1_shape1.png	1	1	1	1	1	4	0	0	0	0	0	0	0	0	0	0	0	0	1	25
252.5927734375	0.100006539403694	517310	386	13	stim13_sf2_pattern2_cont1_shape2.png	2	54	0	496.473997953723	496.574004493126	0.100006539403694	stim13_sf2_pattern2_cont1_shape2.png	2	2	1	2	1	3	0	0	0	0	0	0	0	0	0	0	0	0	1	25
253.0927734375	0.100030292393058	518334	387	11	stim11_sf2_pattern1_cont2_shape2.png	2	55	0	496.97398050554	497.074010797933	0.100030292393058	stim11_sf2_pattern1_cont2_shape2.png	2	1	2	2	1	1	0	0	0	0	0	0	0	0	0	0	0	0	1	25
253.5927734375	0.100001260962017	519358	388	7	stim07_sf1_pattern2_cont2_shape2.png	2	56	0	497.474005284892	497.574006545854	0.100001260962017	stim07_sf1_pattern2_cont2_shape2.png	1	2	2	2	1	3	0	0	0	0	0	0	0	0	0	0	0	0	1	25
254.0927734375	0.100005659662202	520382	389	9	stim09_sf2_pattern1_cont1_shape2.png	2	57	0	497.973992528658	498.07399818832	0.100005659662202	stim09_sf2_pattern1_cont1_shape2.png	2	1	1	2	1	1	0	0	0	0	0	0	0	0	0	0	0	0	1	25
254.5927734375	0.0999953960254061	521406	390	5	stim05_sf1_pattern2_cont1_shape2.png	2	58	0	498.473991502293	498.573986898318	0.0999953960254061	stim05_sf1_pattern2_cont1_shape2.png	1	2	1	2	1	3	0	0	0	0	0	0	0	0	0	0	0	0	1	25
255.0927734375	0.100007125896809	522430	391	12	stim12_sf2_pattern2_cont1_shape1.png	2	59	0	498.97397757307	499.073984698967	0.100007125896809	stim12_sf2_pattern2_cont1_shape1.png	2	2	1	1	1	2	0	0	0	0	0	0	0	0	0	0	0	0	1	25
255.5927734375	0.0999754552431114	523454	392	8	stim08_sf2_pattern1_cont1_shape1.png	2	60	0	499.473963057355	499.573938512598	0.0999754552431114	stim08_sf2_pattern1_cont1_shape1.png	2	1	1	1	1	4	0	0	0	0	0	0	0	0	0	0	0	0	1	25
256.0927734375	0.100003606936298	524478	393	4	stim04_sf1_pattern2_cont1_shape1.png	2	61	0	499.973962910732	500.073966517668	0.100003606936298	stim04_sf1_pattern2_cont1_shape1.png	1	2	1	1	1	2	0	0	0	0	0	0	0	0	0	0	0	0	1	25
256.5927734375	0.0999446643309057	525502	394	3	stim03_sf1_pattern1_cont2_shape2.png	2	62	0	500.473970388524	500.573915052855	0.0999446643309057	stim03_sf1_pattern1_cont2_shape2.png	1	1	2	2	1	1	0	0	0	0	0	0	0	0	0	0	0	0	1	25
257.0927734375	0.0999648983579391	526526	395	2	stim02_sf1_pattern1_cont2_shape1.png	2	63	0	500.973943556444	501.073908454802	0.0999648983579391	stim02_sf1_pattern1_cont2_shape1.png	1	1	2	1	1	4	0	0	0	0	0	0	0	0	0	0	0	0	1	25
257.5927734375	0.0999739890103228	527550	396	6	stim06_sf1_pattern2_cont2_shape1.png	2	64	0	501.473931386701	501.573905375712	0.0999739890103228	stim06_sf1_pattern2_cont2_shape1.png	1	2	2	1	1	2	0	0	0	0	0	0	0	0	0	0	0	0	1	25
258.0927734375	0.099975748491488	528574	397	10	stim10_sf2_pattern1_cont2_shape1.png	2	65	0	501.973921856181	502.073897604672	0.099975748491488	stim10_sf2_pattern1_cont2_shape1.png	2	1	2	1	1	4	0	0	0	0	0	0	0	0	0	0	0	0	1	25
258.5927734375	0.100008592131417	529598	398	15	stim15_sf2_pattern2_cont2_shape2.png	2	66	0	502.473890625397	502.573899217528	0.100008592131417	stim15_sf2_pattern2_cont2_shape2.png	2	2	2	2	1	3	0	0	0	0	0	0	0	0	0	0	0	0	1	25
259.0927734375	0.0999833729074453	530622	399	14	stim14_sf2_pattern2_cont2_shape1.png	2	67	0	502.973901035659	503.073884408566	0.0999833729074453	stim14_sf2_pattern2_cont2_shape1.png	2	2	2	1	1	2	0	0	0	0	0	0	0	0	0	0	0	0	1	25
259.5927734375	0.0999980352480634	531646	400	4	stim04_sf1_pattern2_cont1_shape1.png	2	68	0	503.47390675397	503.573904789218	0.0999980352480634	stim04_sf1_pattern2_cont1_shape1.png	1	2	1	1	1	2	0	0	0	0	0	0	0	0	0	0	0	0	1	25
260.0927734375	0.0999992082342942	532670	401	11	stim11_sf2_pattern1_cont2_shape2.png	2	69	0	503.973898982931	504.073898191165	0.0999992082342942	stim11_sf2_pattern1_cont2_shape2.png	2	1	2	2	1	1	0	0	0	0	0	0	0	0	0	0	0	0	1	25
260.5927734375	0.0999886513491219	533694	402	12	stim12_sf2_pattern2_cont1_shape1.png	2	70	0	504.473902062022	504.573890713371	0.0999886513491219	stim12_sf2_pattern2_cont1_shape1.png	2	2	1	1	1	2	0	0	0	0	0	0	0	0	0	0	0	0	1	25
261.0927734375	0.100010058364205	534718	403	2	stim02_sf1_pattern1_cont2_shape1.png	2	71	0	504.973877869163	505.073887927527	0.100010058364205	stim02_sf1_pattern1_cont2_shape1.png	1	1	2	1	1	4	0	0	0	0	0	0	0	0	0	0	0	0	1	25
261.5927734375	0.100030878886173	535742	404	15	stim15_sf2_pattern2_cont2_shape2.png	2	72	0	505.473897956568	505.573928835454	0.100030878886173	stim15_sf2_pattern2_cont2_shape2.png	2	2	2	2	1	3	0	0	0	0	0	0	0	0	0	0	0	0	1	25
262.0927734375	0.100013870573093	536766	405	0	stim00_sf1_pattern1_cont1_shape1.png	2	73	0	505.973879042149	506.073892912722	0.100013870573093	stim00_sf1_pattern1_cont1_shape1.png	1	1	1	1	1	4	0	0	0	0	0	0	0	0	0	0	0	0	1	25
262.5927734375	0.0999857188817259	537790	406	9	stim09_sf2_pattern1_cont1_shape2.png	2	74	0	506.473884760462	506.573870479344	0.0999857188817259	stim09_sf2_pattern1_cont1_shape2.png	2	1	1	2	1	1	0	0	0	0	0	0	0	0	0	0	0	0	1	25
263.0927734375	0.100006832650251	538814	407	14	stim14_sf2_pattern2_cont2_shape1.png	2	75	0	506.973860567601	507.073867400251	0.100006832650251	stim14_sf2_pattern2_cont2_shape1.png	2	2	2	1	1	2	0	0	0	0	0	0	0	0	0	0	0	0	1	25
263.5927734375	0.10000214070169	539838	408	8	stim08_sf2_pattern1_cont1_shape1.png	2	76	0	507.473870684616	507.573872825318	0.10000214070169	stim08_sf2_pattern1_cont1_shape1.png	2	1	1	1	1	4	0	0	0	0	0	0	0	0	0	0	0	0	1	25
264.0927734375	0.100008885377974	540862	409	6	stim06_sf1_pattern2_cont2_shape1.png	2	77	0	507.973845612016	508.073854497394	0.100008885377974	stim06_sf1_pattern2_cont2_shape1.png	1	2	2	1	1	2	0	0	0	0	0	0	0	0	0	0	0	0	1	25
264.5927734375	0.0999930500511255	541886	410	5	stim05_sf1_pattern2_cont1_shape2.png	2	78	0	508.473850157341	508.573843207392	0.0999930500511255	stim05_sf1_pattern2_cont1_shape2.png	1	2	1	2	1	3	0	0	0	0	0	0	0	0	0	0	0	0	1	25
265.0927734375	0.100003606936298	542910	411	3	stim03_sf1_pattern1_cont2_shape2.png	2	79	0	508.973830949675	509.073834556611	0.100003606936298	stim03_sf1_pattern1_cont2_shape2.png	1	1	2	2	1	1	0	0	0	0	0	0	0	0	0	0	0	0	1	25
265.5927734375	0.100024427458266	543934	412	1	stim01_sf1_pattern1_cont1_shape2.png	2	80	0	509.473807343309	509.573831770767	0.100024427458266	stim01_sf1_pattern1_cont1_shape2.png	1	1	1	2	1	1	0	0	0	0	0	0	0	0	0	0	0	0	1	25
266.0927734375	0.1000299991465	544958	413	10	stim10_sf2_pattern1_cont2_shape1.png	2	81	0	509.973739749925	510.073769749071	0.1000299991465	stim10_sf2_pattern1_cont2_shape1.png	2	1	2	1	1	4	0	0	0	0	0	0	0	0	0	0	0	0	1	25
266.5927734375	0.0999980352462444	545982	414	7	stim07_sf1_pattern2_cont2_shape2.png	2	82	0	510.473817900194	510.573815935441	0.0999980352462444	stim07_sf1_pattern2_cont2_shape2.png	1	2	2	2	1	3	0	0	0	0	0	0	0	0	0	0	0	0	1	25
267.09228515625	0.100003606934479	547005	415	13	stim13_sf2_pattern2_cont1_shape2.png	2	83	0	510.973799865516	511.073803472451	0.100003606934479	stim13_sf2_pattern2_cont1_shape2.png	2	2	1	2	1	3	0	0	0	0	0	0	0	0	0	0	0	0	1	25
267.59228515625	0.099997448753129	548029	416	8	stim08_sf2_pattern1_cont1_shape1.png	2	84	0	511.473799718893	511.573797167646	0.099997448753129	stim08_sf2_pattern1_cont1_shape1.png	2	1	1	1	1	4	0	0	0	0	0	0	0	0	0	0	0	0	1	25
268.09228515625	0.10000947187109	549053	417	3	stim03_sf1_pattern1_cont2_shape2.png	2	85	0	511.973779631488	512.073789103359	0.10000947187109	stim03_sf1_pattern1_cont2_shape2.png	1	1	2	2	1	1	0	0	0	0	0	0	0	0	0	0	0	0	1	25
268.59228515625	0.0999959825203405	550077	418	6	stim06_sf1_pattern2_cont2_shape1.png	2	86	0	512.473784763306	512.573780745826	0.0999959825203405	stim06_sf1_pattern2_cont2_shape1.png	1	2	2	1	1	2	0	0	0	0	0	0	0	0	0	0	0	0	1	25
269.09228515625	0.100006832650251	551101	419	0	stim00_sf1_pattern1_cont1_shape1.png	2	87	0	512.973771420577	513.073778253227	0.100006832650251	stim00_sf1_pattern1_cont1_shape1.png	1	1	1	1	1	4	0	0	0	0	0	0	0	0	0	0	0	0	1	25
269.59228515625	0.0999971555065713	552125	420	4	stim04_sf1_pattern2_cont1_shape1.png	2	88	0	513.47377068746	513.573767842967	0.0999971555065713	stim04_sf1_pattern2_cont1_shape1.png	1	2	1	1	1	2	0	0	0	0	0	0	0	0	0	0	0	0	1	25
270.09228515625	0.100000674467083	553149	421	15	stim15_sf2_pattern2_cont2_shape2.png	2	89	0	513.973758517719	514.073759192186	0.100000674467083	stim15_sf2_pattern2_cont2_shape2.png	2	2	2	2	1	3	0	0	0	0	0	0	0	0	0	0	0	0	1	25
270.59228515625	0.0999930500511255	554173	422	1	stim01_sf1_pattern1_cont1_shape2.png	2	90	0	514.47375514538	514.573748195431	0.0999930500511255	stim01_sf1_pattern1_cont1_shape2.png	1	1	1	2	1	1	0	0	0	0	0	0	0	0	0	0	0	0	1	25
271.09228515625	0.0999901175837294	555197	423	14	stim14_sf2_pattern2_cont2_shape1.png	2	91	0	514.97373828369	515.073728401274	0.0999901175837294	stim14_sf2_pattern2_cont2_shape1.png	2	2	2	1	1	2	0	0	0	0	0	0	0	0	0	0	0	0	1	25
271.59228515625	0.0999810269331647	556221	424	2	stim02_sf1_pattern1_cont2_shape1.png	2	92	0	515.473736377586	515.573717404519	0.0999810269331647	stim02_sf1_pattern1_cont2_shape1.png	1	1	2	1	1	4	0	0	0	0	0	0	0	0	0	0	0	0	1	25
272.09228515625	0.0999742822568805	557245	425	7	stim07_sf1_pattern2_cont2_shape2.png	2	93	0	515.973720982129	516.073695264386	0.0999742822568805	stim07_sf1_pattern2_cont2_shape2.png	1	2	2	2	1	3	0	0	0	0	0	0	0	0	0	0	0	0	1	25
272.59228515625	0.099969883553058	558269	426	12	stim12_sf2_pattern2_cont1_shape1.png	2	94	0	516.473707346155	516.573677229708	0.099969883553058	stim12_sf2_pattern2_cont1_shape1.png	2	2	1	1	1	2	0	0	0	0	0	0	0	0	0	0	0	0	1	25
273.09228515625	0.0999792674519995	559293	427	9	stim09_sf2_pattern1_cont1_shape2.png	2	95	0	516.973691657451	517.073670924903	0.0999792674519995	stim09_sf2_pattern1_cont1_shape2.png	2	1	1	2	1	1	0	0	0	0	0	0	0	0	0	0	0	0	1	25
273.59228515625	0.0999754552449303	560317	428	11	stim11_sf2_pattern1_cont2_shape2.png	2	96	0	517.473688285112	517.573663740357	0.0999754552449303	stim11_sf2_pattern1_cont2_shape2.png	2	1	2	2	1	1	0	0	0	0	0	0	0	0	0	0	0	0	1	25
274.09228515625	0.100000381222344	561341	429	5	stim05_sf1_pattern2_cont1_shape2.png	2	97	0	517.973656467835	518.073656849057	0.100000381222344	stim05_sf1_pattern2_cont1_shape2.png	1	2	1	2	1	3	0	0	0	0	0	0	0	0	0	0	0	0	1	25
274.59228515625	0.0999845458954951	562365	430	13	stim13_sf2_pattern2_cont1_shape2.png	2	98	0	518.473672743032	518.573657288927	0.0999845458954951	stim13_sf2_pattern2_cont1_shape2.png	2	2	1	2	1	3	0	0	0	0	0	0	0	0	0	0	0	0	1	25
275.09228515625	0.0999971555065713	563389	431	10	stim10_sf2_pattern1_cont2_shape1.png	2	99	0	518.97367347615	519.073670631657	0.0999971555065713	stim10_sf2_pattern1_cont2_shape1.png	2	1	2	1	1	4	0	0	0	0	0	0	0	0	0	0	0	0	1	25
275.59228515625	0.0999971555047523	564413	432	6	stim06_sf1_pattern2_cont2_shape1.png	2	100	0	519.473668344332	519.573665499836	0.0999971555047523	stim06_sf1_pattern2_cont2_shape1.png	1	2	2	1	1	2	0	0	0	0	0	0	0	0	0	0	0	0	1	25
276.09228515625	0.0999965690116369	565437	433	5	stim05_sf1_pattern2_cont1_shape2.png	2	101	0	519.973655588095	520.073652157107	0.0999965690116369	stim05_sf1_pattern2_cont1_shape2.png	1	2	1	2	1	3	0	0	0	0	0	0	0	0	0	0	0	0	1	25
276.59228515625	0.100005366415644	566461	434	10	stim10_sf2_pattern1_cont2_shape1.png	2	102	1	520.473659253681	520.573664620097	0.100005366415644	stim10_sf2_pattern1_cont2_shape1.png	2	1	2	1	1	4	0	0	0	0	0	0	0	0	0	0	0	0	1	25
277.09228515625	0.099991583816518	567485	435	10	stim10_sf2_pattern1_cont2_shape1.png	2	103	1	520.973676115371	521.073667699187	0.099991583816518	stim10_sf2_pattern1_cont2_shape1.png	2	1	2	1	1	4	0	0	0	0	0	0	0	0	0	0	0	0	1	25
277.59228515625	0.0999915838183369	568509	436	15	stim15_sf2_pattern2_cont2_shape2.png	2	104	2	521.473663065888	521.573654649706	0.0999915838183369	stim15_sf2_pattern2_cont2_shape2.png	2	2	2	2	1	3	0	0	0	0	0	0	0	0	0	0	0	0	1	25
278.09228515625	0.100008885377974	569533	437	0	stim00_sf1_pattern1_cont1_shape1.png	2	105	2	521.973636527055	522.073645412433	0.100008885377974	stim00_sf1_pattern1_cont1_shape1.png	1	1	1	1	1	4	0	0	0	0	0	0	0	0	0	0	0	0	1	25
278.59228515625	0.0999995014808519	570557	438	10	stim10_sf2_pattern1_cont2_shape1.png	2	106	0	522.473637846664	522.573637348145	0.0999995014808519	stim10_sf2_pattern1_cont2_shape1.png	2	1	2	1	1	4	0	0	0	0	0	0	0	0	0	0	0	0	1	25
279.09228515625	0.100007419143367	571581	439	2	stim02_sf1_pattern1_cont2_shape1.png	2	107	0	522.973620984974	523.073628404118	0.100007419143367	stim02_sf1_pattern1_cont2_shape1.png	1	1	2	1	1	4	0	0	0	0	0	0	0	0	0	0	0	0	1	25
279.59228515625	0.100005366415644	572605	440	9	stim09_sf2_pattern1_cont1_shape2.png	2	108	0	523.473618785623	523.573624152039	0.100005366415644	stim09_sf2_pattern1_cont1_shape2.png	2	1	1	2	1	1	0	0	0	0	0	0	0	0	0	0	0	0	1	25
280.09228515625	0.10001181784537	573629	441	15	stim15_sf2_pattern2_cont2_shape2.png	2	109	0	523.973605442894	524.073617260739	0.10001181784537	stim15_sf2_pattern2_cont2_shape2.png	2	2	2	2	1	3	0	0	0	0	0	0	0	0	0	0	0	0	1	25
280.59228515625	0.0999983284928021	574653	442	3	stim03_sf1_pattern1_cont2_shape2.png	2	110	0	524.473607348998	524.573605677491	0.0999983284928021	stim03_sf1_pattern1_cont2_shape2.png	1	1	2	2	1	1	0	0	0	0	0	0	0	0	0	0	0	0	1	25
281.09228515625	0.0999951027788484	575677	443	0	stim00_sf1_pattern1_cont1_shape1.png	2	111	0	524.973603683413	525.073598786192	0.0999951027788484	stim00_sf1_pattern1_cont1_shape1.png	1	1	1	1	1	4	0	0	0	0	0	0	0	0	0	0	0	0	1	25
281.59228515625	0.0999989149859175	576701	444	1	stim01_sf1_pattern1_cont1_shape2.png	2	112	0	525.473592979906	525.573591894892	0.0999989149859175	stim01_sf1_pattern1_cont1_shape2.png	1	1	1	2	1	1	0	0	0	0	0	0	0	0	0	0	0	0	1	25
282.09228515625	0.10001299083342	577725	445	8	stim08_sf2_pattern1_cont1_shape1.png	2	113	0	525.973578757435	526.073591748269	0.10001299083342	stim08_sf2_pattern1_cont1_shape1.png	2	1	1	1	1	4	0	0	0	0	0	0	0	0	0	0	0	0	1	25
282.59228515625	0.0999992082324752	578749	446	14	stim14_sf2_pattern2_cont2_shape1.png	2	114	0	526.473579490554	526.573578698786	0.0999992082324752	stim14_sf2_pattern2_cont2_shape1.png	2	2	2	1	1	2	0	0	0	0	0	0	0	0	0	0	0	0	1	25
283.09228515625	0.100014163819651	579773	447	4	stim04_sf1_pattern2_cont1_shape1.png	2	115	0	526.973557057174	527.073571220993	0.100014163819651	stim04_sf1_pattern2_cont1_shape1.png	1	2	1	1	1	2	0	0	0	0	0	0	0	0	0	0	0	0	1	25
283.59228515625	0.0999953960254061	580797	448	7	stim07_sf1_pattern2_cont2_shape2.png	2	116	0	527.47356512146	527.573560517485	0.0999953960254061	stim07_sf1_pattern2_cont2_shape2.png	1	2	2	2	1	3	0	0	0	0	0	0	0	0	0	0	0	0	1	25
284.09228515625	0.100010058366024	581821	449	12	stim12_sf2_pattern2_cont1_shape1.png	2	117	0	527.973544154314	528.07355421268	0.100010058366024	stim12_sf2_pattern2_cont1_shape1.png	2	2	1	1	1	2	0	0	0	0	0	0	0	0	0	0	0	0	1	25
284.591796875	0.0999965690134559	582844	450	11	stim11_sf2_pattern1_cont2_shape2.png	2	118	0	528.473550752367	528.573547321381	0.0999965690134559	stim11_sf2_pattern1_cont2_shape2.png	2	1	2	2	1	1	0	0	0	0	0	0	0	0	0	0	0	0	1	25
