onset	duration	onsetsample	eventnumber	stimnumber	stimname	blocknumber	trialnumber	istarget	time_stimon	time_stimoff	stimdur	stimfilename	spatial_freq	pattern	contrast	shape	is_fast_stream	category	ppt_1_response	ppt_1_keypressed	ppt_1_rt	ppt_1_correct	ppt_2_response	ppt_2_keypressed	ppt_2_rt	ppt_2_correct	button1	button2	button3	button4	task_part_number	subjectnr
32.720703125	0.0999912905717792	67012	0	1	stim01_sf1_pattern1_cont1_shape2.png	0	0	0	209.113897639862	209.213888930433	0.0999912905717792	stim01_sf1_pattern1_cont1_shape2.png	1	1	1	2	1	1	0	0	0	0	0	0	0	0	0	0	0	0	1	26
33.22900390625	0.100003020441363	68053	1	12	stim12_sf2_pattern2_cont1_shape1.png	0	1	0	209.622200189613	209.722203210054	0.100003020441363	stim12_sf2_pattern2_cont1_shape1.png	2	2	1	1	1	3	0	0	0	0	0	0	0	0	0	0	0	0	1	26
33.72900390625	0.105810773122357	69077	2	7	stim07_sf1_pattern2_cont2_shape2.png	0	2	0	210.141409173993	210.247219947116	0.105810773122357	stim07_sf1_pattern2_cont2_shape2.png	1	2	2	2	1	2	0	0	0	0	0	0	0	0	0	0	0	0	1	26
34.25390625	0.100019442263147	70152	3	0	stim00_sf1_pattern1_cont1_shape1.png	0	3	0	210.647181883684	210.747201325947	0.100019442263147	stim00_sf1_pattern1_cont1_shape1.png	1	1	1	1	1	1	0	0	0	0	0	0	0	0	0	0	0	0	1	26
34.75390625	0.099994516287552	71176	4	3	stim03_sf1_pattern1_cont2_shape2.png	0	4	0	211.147194639918	211.247189156205	0.099994516287552	stim03_sf1_pattern1_cont2_shape2.png	1	1	2	2	1	2	0	0	0	0	0	0	0	0	0	0	0	0	1	26
35.25390625	0.0999968622600136	72200	5	15	stim15_sf2_pattern2_cont2_shape2.png	0	5	0	211.647185695892	211.747182558152	0.0999968622600136	stim15_sf2_pattern2_cont2_shape2.png	2	2	2	2	1	4	0	0	0	0	0	0	0	0	0	0	0	0	1	26
35.75390625	0.0999939297907986	73224	6	14	stim14_sf2_pattern2_cont2_shape1.png	0	6	0	212.147179977579	212.24717390737	0.0999939297907986	stim14_sf2_pattern2_cont2_shape1.png	2	2	2	1	1	4	0	0	0	0	0	0	0	0	0	0	0	0	1	26
36.25390625	0.0999127004288312	74248	7	6	stim06_sf1_pattern2_cont2_shape1.png	0	7	0	212.647221178755	212.747133879184	0.0999127004288312	stim06_sf1_pattern2_cont2_shape1.png	1	2	2	1	1	2	0	0	0	0	0	0	0	0	0	0	0	0	1	26
36.75390625	0.0999909973252215	75272	8	11	stim11_sf2_pattern1_cont2_shape2.png	0	8	0	213.147166781473	213.247157778798	0.0999909973252215	stim11_sf2_pattern1_cont2_shape2.png	2	1	2	2	1	4	0	0	0	0	0	0	0	0	0	0	0	0	1	26
37.25390625	0.100000967715459	76296	9	13	stim13_sf2_pattern2_cont1_shape2.png	0	9	0	213.647133791208	213.747134758923	0.100000967715459	stim13_sf2_pattern2_cont1_shape2.png	2	2	1	2	1	3	0	0	0	0	0	0	0	0	0	0	0	0	1	26
37.75390625	0.0999933432976832	77320	10	8	stim08_sf2_pattern1_cont1_shape1.png	0	10	0	214.147151532641	214.247144875939	0.0999933432976832	stim08_sf2_pattern1_cont1_shape1.png	2	1	1	1	1	3	0	0	0	0	0	0	0	0	0	0	0	0	1	26
38.25390625	0.100001847455133	78344	11	2	stim02_sf1_pattern1_cont2_shape1.png	0	11	0	214.647133791208	214.747135638663	0.100001847455133	stim02_sf1_pattern1_cont2_shape1.png	1	1	2	1	1	2	0	0	0	0	0	0	0	0	0	0	0	0	1	26
38.75390625	0.100005366413825	79368	12	5	stim05_sf1_pattern2_cont1_shape2.png	0	12	0	215.147131885107	215.247137251521	0.100005366413825	stim05_sf1_pattern2_cont1_shape2.png	1	2	1	2	1	1	0	0	0	0	0	0	0	0	0	0	0	0	1	26
39.25390625	0.0999977419996867	80392	13	9	stim09_sf2_pattern1_cont1_shape2.png	0	13	0	215.647102413805	215.747100155804	0.0999977419996867	stim09_sf2_pattern1_cont1_shape2.png	2	1	1	2	1	3	0	0	0	0	0	0	0	0	0	0	0	0	1	26
39.75390625	0.100001847455133	81416	14	10	stim10_sf2_pattern1_cont2_shape1.png	0	14	0	216.147096695491	216.247098542946	0.100001847455133	stim10_sf2_pattern1_cont2_shape1.png	2	1	2	1	1	4	0	0	0	0	0	0	0	0	0	0	0	0	1	26
40.25390625	0.10000214070169	82440	15	4	stim04_sf1_pattern2_cont1_shape1.png	0	15	0	216.647087458216	216.747089598917	0.10000214070169	stim04_sf1_pattern2_cont1_shape1.png	1	2	1	1	1	1	0	0	0	0	0	0	0	0	0	0	0	0	1	26
40.75390625	0.099997448753129	83464	16	9	stim09_sf2_pattern1_cont1_shape2.png	0	16	0	217.14710138744	217.247098836193	0.099997448753129	stim09_sf2_pattern1_cont1_shape2.png	2	1	1	2	1	3	0	0	0	0	0	0	0	0	0	0	0	0	1	26
41.25390625	0.100012697585043	84488	17	15	stim15_sf2_pattern2_cont2_shape2.png	0	17	0	217.647072795877	217.747085493462	0.100012697585043	stim15_sf2_pattern2_cont2_shape2.png	2	2	2	2	1	4	0	0	0	0	0	0	0	0	0	0	0	0	1	26
41.75390625	0.100014163817832	85512	18	13	stim13_sf2_pattern2_cont1_shape2.png	0	18	0	218.147063265358	218.247077429176	0.100014163817832	stim13_sf2_pattern2_cont1_shape2.png	2	2	1	2	1	3	0	0	0	0	0	0	0	0	0	0	0	0	1	26
42.25390625	0.100018269273278	86536	19	5	stim05_sf1_pattern2_cont1_shape2.png	0	19	0	218.64706253224	218.747080801513	0.100018269273278	stim05_sf1_pattern2_cont1_shape2.png	1	2	1	2	1	1	0	0	0	0	0	0	0	0	0	0	0	0	1	26
42.75390625	0.100040849276411	87560	20	6	stim06_sf1_pattern2_cont2_shape1.png	0	20	0	219.147026609509	219.247067458786	0.100040849276411	stim06_sf1_pattern2_cont2_shape1.png	1	2	2	1	1	2	0	0	0	0	0	0	0	0	0	0	0	0	1	26
43.25390625	0.100014750314585	88584	21	10	stim10_sf2_pattern1_cont2_shape1.png	0	21	0	219.647005055867	219.747019806182	0.100014750314585	stim10_sf2_pattern1_cont2_shape1.png	2	1	2	1	1	4	0	0	0	0	0	0	0	0	0	0	0	0	1	26
43.75390625	0.0999936365442409	89608	22	4	stim04_sf1_pattern2_cont1_shape1.png	0	22	0	220.147033354184	220.247026990728	0.0999936365442409	stim04_sf1_pattern2_cont1_shape1.png	1	2	1	1	1	1	0	0	0	0	0	0	0	0	0	0	0	0	1	26
44.25390625	0.0999549279695202	90632	23	14	stim14_sf2_pattern2_cont2_shape1.png	0	23	0	220.647037019768	220.746991947737	0.0999549279695202	stim14_sf2_pattern2_cont2_shape1.png	2	2	2	1	1	4	0	0	0	0	0	0	0	0	0	0	0	0	1	26
44.75390625	0.0999936365442409	91656	24	11	stim11_sf2_pattern1_cont2_shape2.png	0	24	0	221.147005202492	221.246998839037	0.0999936365442409	stim11_sf2_pattern1_cont2_shape2.png	2	1	2	2	1	4	0	0	0	0	0	0	0	0	0	0	0	0	1	26
45.25390625	0.100005952910578	92680	25	0	stim00_sf1_pattern1_cont1_shape1.png	0	25	0	221.64700681535	221.747012768261	0.100005952910578	stim00_sf1_pattern1_cont1_shape1.png	1	1	1	1	1	1	0	0	0	0	0	0	0	0	0	0	0	0	1	26
45.75390625	0.0999772147224576	93704	26	1	stim01_sf1_pattern1_cont1_shape2.png	0	26	0	222.147013413403	222.246990628126	0.0999772147224576	stim01_sf1_pattern1_cont1_shape2.png	1	1	1	2	1	1	0	0	0	0	0	0	0	0	0	0	0	0	1	26
46.25390625	0.0999930500511255	94728	27	2	stim02_sf1_pattern1_cont2_shape1.png	0	27	0	222.646996258463	222.746989308514	0.0999930500511255	stim02_sf1_pattern1_cont2_shape1.png	1	1	2	1	1	2	0	0	0	0	0	0	0	0	0	0	0	0	1	26
46.75390625	0.100005073170905	95752	28	8	stim08_sf2_pattern1_cont1_shape1.png	0	28	1	223.14697881028	223.246983883451	0.100005073170905	stim08_sf2_pattern1_cont1_shape1.png	2	1	1	1	1	3	0	0	0	0	0	0	0	0	0	0	0	0	1	26
47.25341796875	0.0999921703114524	96775	29	8	stim08_sf2_pattern1_cont1_shape1.png	0	29	1	223.647007108597	223.746999278908	0.0999921703114524	stim08_sf2_pattern1_cont1_shape1.png	2	1	1	1	1	3	0	0	0	0	0	0	0	0	0	0	0	0	1	26
47.75341796875	0.100009178626351	97799	30	11	stim11_sf2_pattern1_cont2_shape2.png	0	30	2	224.146998457814	224.247007636441	0.100009178626351	stim11_sf2_pattern1_cont2_shape2.png	2	1	2	2	1	4	0	0	0	0	0	0	0	0	0	0	0	0	1	26
48.25341796875	0.100000967711821	98823	31	9	stim09_sf2_pattern1_cont1_shape2.png	0	31	2	224.646964587813	224.746965555525	0.100000967711821	stim09_sf2_pattern1_cont1_shape2.png	2	1	1	2	1	3	0	0	0	0	0	0	0	0	0	0	0	0	1	26
48.75341796875	0.100036450578045	99847	32	8	stim08_sf2_pattern1_cont1_shape1.png	0	32	0	225.146942154432	225.24697860501	0.100036450578045	stim08_sf2_pattern1_cont1_shape1.png	2	1	1	1	1	3	0	0	0	0	0	0	0	0	0	0	0	0	1	26
49.25341796875	0.100015630050621	100871	33	3	stim03_sf1_pattern1_cont2_shape2.png	0	33	0	225.646950805214	225.746966435265	0.100015630050621	stim03_sf1_pattern1_cont2_shape2.png	1	1	2	2	1	2	0	0	0	0	0	0	0	0	0	0	0	0	1	26
49.75341796875	0.0999707632945501	101895	34	7	stim07_sf1_pattern2_cont2_shape2.png	0	34	0	226.146944207161	226.246914970456	0.0999707632945501	stim07_sf1_pattern2_cont2_shape2.png	1	2	2	2	1	2	0	0	0	0	0	0	0	0	0	0	0	0	1	26
50.25341796875	0.100015923300816	102919	35	12	stim12_sf2_pattern2_cont1_shape1.png	0	35	0	226.646933796899	226.7469497202	0.100015923300816	stim12_sf2_pattern2_cont1_shape1.png	2	2	1	1	1	3	0	0	0	0	0	0	0	0	0	0	0	0	1	26
50.75341796875	0.0999965690134559	103943	36	2	stim02_sf1_pattern1_cont2_shape1.png	0	36	0	227.14694684638	227.246943415394	0.0999965690134559	stim02_sf1_pattern1_cont2_shape1.png	1	1	2	1	1	2	0	0	0	0	0	0	0	0	0	0	0	0	1	26
51.25341796875	0.0999798539451149	104967	37	0	stim00_sf1_pattern1_cont1_shape1.png	0	37	0	227.646938782094	227.746918636039	0.0999798539451149	stim00_sf1_pattern1_cont1_shape1.png	1	1	1	1	1	1	0	0	0	0	0	0	0	0	0	0	0	0	1	26
51.75341796875	0.100015923300816	105991	38	14	stim14_sf2_pattern2_cont2_shape1.png	0	38	0	228.146913416247	228.246929339548	0.100015923300816	stim14_sf2_pattern2_cont2_shape1.png	2	2	2	1	1	4	0	0	0	0	0	0	0	0	0	0	0	0	1	26
52.25341796875	0.10000595290694	107015	39	11	stim11_sf2_pattern1_cont2_shape2.png	0	39	0	228.646904765468	228.746910718375	0.10000595290694	stim11_sf2_pattern1_cont2_shape2.png	2	1	2	2	1	4	0	0	0	0	0	0	0	0	0	0	0	0	1	26
52.75341796875	0.10000214070169	108039	40	8	stim08_sf2_pattern1_cont1_shape1.png	0	40	0	229.146916641963	229.246918782665	0.10000214070169	stim08_sf2_pattern1_cont1_shape1.png	2	1	1	1	1	3	0	0	0	0	0	0	0	0	0	0	0	0	1	26
53.25341796875	0.0999816134280991	109063	41	7	stim07_sf1_pattern2_cont2_shape2.png	0	41	0	229.64690799118	229.746889604608	0.0999816134280991	stim07_sf1_pattern2_cont2_shape2.png	1	2	2	2	1	2	0	0	0	0	0	0	0	0	0	0	0	0	1	26
53.75341796875	0.100000674468902	110087	42	4	stim04_sf1_pattern2_cont1_shape1.png	0	42	0	230.146900513388	230.246901187857	0.100000674468902	stim04_sf1_pattern2_cont1_shape1.png	1	2	1	1	1	1	0	0	0	0	0	0	0	0	0	0	0	0	1	26
54.25341796875	0.0999801471953106	111111	43	12	stim12_sf2_pattern2_cont1_shape1.png	0	43	0	230.646895088321	230.746875235516	0.0999801471953106	stim12_sf2_pattern2_cont1_shape1.png	2	2	1	1	1	3	0	0	0	0	0	0	0	0	0	0	0	0	1	26
54.75341796875	0.099936453421833	112135	44	6	stim06_sf1_pattern2_cont2_shape1.png	0	44	0	231.146885851049	231.246822304471	0.099936453421833	stim06_sf1_pattern2_cont2_shape1.png	1	2	2	1	1	2	0	0	0	0	0	0	0	0	0	0	0	0	1	26
55.25341796875	0.100054925125733	113159	45	5	stim05_sf1_pattern2_cont1_shape2.png	0	45	0	231.646802422336	231.746857347462	0.100054925125733	stim05_sf1_pattern2_cont1_shape2.png	1	2	1	2	1	1	0	0	0	0	0	0	0	0	0	0	0	0	1	26
55.75341796875	0.0999710565411078	114183	46	13	stim13_sf2_pattern2_cont1_shape2.png	0	46	0	232.146876173905	232.246847230446	0.0999710565411078	stim13_sf2_pattern2_cont1_shape2.png	2	2	1	2	1	3	0	0	0	0	0	0	0	0	0	0	0	0	1	26
56.25341796875	0.100022081482166	115207	47	9	stim09_sf2_pattern1_cont1_shape2.png	0	47	0	232.646846409356	232.746868490838	0.100022081482166	stim09_sf2_pattern1_cont1_shape2.png	2	1	1	2	1	3	0	0	0	0	0	0	0	0	0	0	0	0	1	26
56.75341796875	0.100006832650251	116231	48	3	stim03_sf1_pattern1_cont2_shape2.png	0	48	0	233.146835705847	233.246842538498	0.100006832650251	stim03_sf1_pattern1_cont2_shape2.png	1	1	2	2	1	2	0	0	0	0	0	0	0	0	0	0	0	0	1	26
57.25341796875	0.100007419147005	117255	49	1	stim01_sf1_pattern1_cont1_shape2.png	0	49	0	233.646812979219	233.746820398366	0.100007419147005	stim01_sf1_pattern1_cont1_shape2.png	1	1	1	2	1	1	0	0	0	0	0	0	0	0	0	0	0	0	1	26
57.75341796875	0.0999760417362268	118279	50	3	stim03_sf1_pattern1_cont2_shape2.png	0	50	1	234.146822509741	234.246798551478	0.0999760417362268	stim03_sf1_pattern1_cont2_shape2.png	1	1	2	2	1	2	0	0	0	0	0	0	0	0	0	0	0	0	1	26
58.25341796875	0.100001554208575	119303	51	3	stim03_sf1_pattern1_cont2_shape2.png	0	51	1	234.646774857138	234.746776411346	0.100001554208575	stim03_sf1_pattern1_cont2_shape2.png	1	1	2	2	1	2	0	0	0	0	0	0	0	0	0	0	0	0	1	26
58.75341796875	0.100034397848503	120327	52	9	stim09_sf2_pattern1_cont1_shape2.png	0	52	2	235.146765033373	235.246799431221	0.100034397848503	stim09_sf2_pattern1_cont1_shape2.png	2	1	1	2	1	3	0	0	0	0	0	0	0	0	0	0	0	0	1	26
59.25341796875	0.0999965690134559	121351	53	4	stim04_sf1_pattern2_cont1_shape1.png	0	53	2	235.646770751682	235.746767320696	0.0999965690134559	stim04_sf1_pattern2_cont1_shape1.png	1	2	1	1	1	1	0	0	0	0	0	0	0	0	0	0	0	0	1	26
59.75341796875	0.100000381218706	122375	54	10	stim10_sf2_pattern1_cont2_shape1.png	0	54	0	236.146784094413	236.246784475632	0.100000381218706	stim10_sf2_pattern1_cont2_shape1.png	2	1	2	1	1	4	0	0	0	0	0	0	0	0	0	0	0	0	1	26
60.25341796875	0.100023254468397	123399	55	15	stim15_sf2_pattern2_cont2_shape2.png	0	55	0	236.64674465272	236.746767907189	0.100023254468397	stim15_sf2_pattern2_cont2_shape2.png	2	2	2	2	1	4	0	0	0	0	0	0	0	0	0	0	0	0	1	26
60.75341796875	0.0999780944657687	124423	56	0	stim00_sf1_pattern1_cont1_shape1.png	0	56	0	237.146799049999	237.246777144464	0.0999780944657687	stim00_sf1_pattern1_cont1_shape1.png	1	1	1	1	1	1	0	0	0	0	0	0	0	0	0	0	0	0	1	26
61.25341796875	0.0999951027770294	125447	57	14	stim14_sf2_pattern2_cont2_shape1.png	0	57	0	237.646792451946	237.746787554723	0.0999951027770294	stim14_sf2_pattern2_cont2_shape1.png	2	2	2	1	1	4	0	0	0	0	0	0	0	0	0	0	0	0	1	26
61.75341796875	0.0999953960235871	126471	58	12	stim12_sf2_pattern2_cont1_shape1.png	0	58	0	238.146766792852	238.246762188875	0.0999953960235871	stim12_sf2_pattern2_cont1_shape1.png	2	2	1	1	1	3	0	0	0	0	0	0	0	0	0	0	0	0	1	26
62.25341796875	0.100020908495935	127495	59	7	stim07_sf1_pattern2_cont2_shape2.png	0	59	0	238.646762247525	238.746783156021	0.100020908495935	stim07_sf1_pattern2_cont2_shape2.png	1	2	2	2	1	2	0	0	0	0	0	0	0	0	0	0	0	0	1	26
62.75341796875	0.100000967711821	128519	60	10	stim10_sf2_pattern1_cont2_shape1.png	0	60	0	239.146770018568	239.246770986279	0.100000967711821	stim10_sf2_pattern1_cont2_shape1.png	2	1	2	1	1	4	0	0	0	0	0	0	0	0	0	0	0	0	1	26
63.25341796875	0.100000381222344	129543	61	8	stim08_sf2_pattern1_cont1_shape1.png	0	61	0	239.646739374275	239.746739755497	0.100000381222344	stim08_sf2_pattern1_cont1_shape1.png	2	1	1	1	1	3	0	0	0	0	0	0	0	0	0	0	0	0	1	26
63.75341796875	0.0999986217393598	130567	62	11	stim11_sf2_pattern1_cont2_shape2.png	0	62	0	240.146748904797	240.246747526537	0.0999986217393598	stim11_sf2_pattern1_cont2_shape2.png	2	1	2	2	1	4	0	0	0	0	0	0	0	0	0	0	0	0	1	26
64.2529296875	0.100012990831601	131590	63	2	stim02_sf1_pattern1_cont2_shape1.png	0	63	0	240.646740547265	240.746753538097	0.100012990831601	stim02_sf1_pattern1_cont2_shape1.png	1	1	2	1	1	2	0	0	0	0	0	0	0	0	0	0	0	0	1	26
64.7529296875	0.0999191518603766	132614	64	6	stim06_sf1_pattern2_cont2_shape1.png	0	64	0	241.146732482975	241.246651634836	0.0999191518603766	stim06_sf1_pattern2_cont2_shape1.png	1	2	2	1	1	2	0	0	0	0	0	0	0	0	0	0	0	0	1	26
65.2529296875	0.100012404342124	133638	65	4	stim04_sf1_pattern2_cont1_shape1.png	0	65	0	241.646693627776	241.746706032118	0.100012404342124	stim04_sf1_pattern2_cont1_shape1.png	1	2	1	1	1	1	0	0	0	0	0	0	0	0	0	0	0	0	1	26
65.7529296875	0.100017682780162	134662	66	13	stim13_sf2_pattern2_cont1_shape2.png	0	66	0	242.146697000117	242.246714682897	0.100017682780162	stim13_sf2_pattern2_cont1_shape2.png	2	2	1	2	1	3	0	0	0	0	0	0	0	0	0	0	0	0	1	26
66.2529296875	0.0999989149859175	135686	67	9	stim09_sf2_pattern1_cont1_shape2.png	0	67	0	242.646694800766	242.746693715751	0.0999989149859175	stim09_sf2_pattern1_cont1_shape2.png	2	1	1	2	1	3	0	0	0	0	0	0	0	0	0	0	0	0	1	26
66.7529296875	0.100010058366024	136710	68	1	stim01_sf1_pattern1_cont1_shape2.png	0	68	0	243.146703451544	243.24671350991	0.100010058366024	stim01_sf1_pattern1_cont1_shape2.png	1	1	1	2	1	1	0	0	0	0	0	0	0	0	0	0	0	0	1	26
67.2529296875	0.0999792674519995	137734	69	3	stim03_sf1_pattern1_cont2_shape2.png	0	69	0	243.646697733231	243.746677000683	0.0999792674519995	stim03_sf1_pattern1_cont2_shape2.png	1	1	2	2	1	2	0	0	0	0	0	0	0	0	0	0	0	0	1	26
67.7529296875	0.0999604996577546	138758	70	10	stim10_sf2_pattern1_cont2_shape1.png	0	70	1	244.146690548685	244.246651048343	0.0999604996577546	stim10_sf2_pattern1_cont2_shape1.png	2	1	2	1	1	4	0	0	0	0	0	0	0	0	0	0	0	0	1	26
68.2529296875	0.100016509793932	139782	71	10	stim10_sf2_pattern1_cont2_shape1.png	0	71	1	244.646661957126	244.74667846692	0.100016509793932	stim10_sf2_pattern1_cont2_shape1.png	2	1	2	1	1	4	0	0	0	0	0	0	0	0	0	0	0	0	1	26
68.7529296875	0.100000674468902	140806	72	6	stim06_sf1_pattern2_cont2_shape1.png	0	72	2	245.146671780891	245.24667245536	0.100000674468902	stim06_sf1_pattern2_cont2_shape1.png	1	2	2	1	1	2	0	0	0	0	0	0	0	0	0	0	0	0	1	26
69.2529296875	0.0999971555065713	141830	73	5	stim05_sf1_pattern2_cont1_shape2.png	0	73	2	245.646650520499	245.746647676006	0.0999971555065713	stim05_sf1_pattern2_cont1_shape2.png	1	2	1	2	1	1	0	0	0	0	0	0	0	0	0	0	0	0	1	26
69.7529296875	0.099997448753129	142854	74	15	stim15_sf2_pattern2_cont2_shape2.png	0	74	0	246.146657705045	246.246655153798	0.099997448753129	stim15_sf2_pattern2_cont2_shape2.png	2	2	2	2	1	4	0	0	0	0	0	0	0	0	0	0	0	0	1	26
70.2529296875	0.0999912905717792	143878	75	5	stim05_sf1_pattern2_cont1_shape2.png	0	75	0	246.64665667868	246.746647969252	0.0999912905717792	stim05_sf1_pattern2_cont1_shape2.png	1	2	1	2	1	1	0	0	0	0	0	0	0	0	0	0	0	0	1	26
70.7529296875	0.100005659664021	144902	76	0	stim00_sf1_pattern1_cont1_shape1.png	0	76	0	247.14664274946	247.246648409124	0.100005659664021	stim00_sf1_pattern1_cont1_shape1.png	1	1	1	1	1	1	0	0	0	0	0	0	0	0	0	0	0	0	1	26
71.2529296875	0.0999997947255906	145926	77	7	stim07_sf1_pattern2_cont2_shape2.png	0	77	0	247.646617383612	247.746617178338	0.0999997947255906	stim07_sf1_pattern2_cont2_shape2.png	1	2	2	2	1	2	0	0	0	0	0	0	0	0	0	0	0	0	1	26
71.7529296875	0.099997448753129	146950	78	2	stim02_sf1_pattern1_cont2_shape1.png	0	78	0	248.146633072316	248.246630521069	0.099997448753129	stim02_sf1_pattern1_cont2_shape1.png	1	1	2	1	1	2	0	0	0	0	0	0	0	0	0	0	0	0	1	26
72.2529296875	0.099994516283914	147974	79	1	stim01_sf1_pattern1_cont1_shape2.png	0	79	0	248.646606826729	248.746601343013	0.099994516283914	stim01_sf1_pattern1_cont1_shape2.png	1	1	1	2	1	1	0	0	0	0	0	0	0	0	0	0	0	0	1	26
72.7529296875	0.100028532910073	148998	80	5	stim05_sf1_pattern2_cont1_shape2.png	0	80	0	249.14658615283	249.24661468574	0.100028532910073	stim05_sf1_pattern2_cont1_shape2.png	1	2	1	2	1	1	0	0	0	0	0	0	0	0	0	0	0	0	1	26
73.2529296875	0.100004486674152	150022	81	9	stim09_sf2_pattern1_cont1_shape2.png	0	81	0	249.646590111661	249.746594598335	0.100004486674152	stim09_sf2_pattern1_cont1_shape2.png	2	1	1	2	1	3	0	0	0	0	0	0	0	0	0	0	0	0	1	26
73.7529296875	0.0999907040750259	151046	82	4	stim04_sf1_pattern2_cont1_shape1.png	0	82	0	250.146579114906	250.246569818981	0.0999907040750259	stim04_sf1_pattern2_cont1_shape1.png	1	2	1	1	1	1	0	0	0	0	0	0	0	0	0	0	0	0	1	26
74.2529296875	0.0999780944621307	152070	83	12	stim12_sf2_pattern2_cont1_shape1.png	0	83	0	250.646556974774	250.746535069236	0.0999780944621307	stim12_sf2_pattern2_cont1_shape1.png	2	2	1	1	1	3	0	0	0	0	0	0	0	0	0	0	0	0	1	26
74.7529296875	0.099972816024092	153094	84	11	stim11_sf2_pattern1_cont2_shape2.png	0	84	0	251.146561520098	251.246534336122	0.099972816024092	stim11_sf2_pattern1_cont2_shape2.png	2	1	2	2	1	4	0	0	0	0	0	0	0	0	0	0	0	0	1	26
75.2529296875	0.0999824931641342	154118	85	6	stim06_sf1_pattern2_cont2_shape1.png	0	85	0	251.646534101525	251.746516594689	0.0999824931641342	stim06_sf1_pattern2_cont2_shape1.png	1	2	2	1	1	2	0	0	0	0	0	0	0	0	0	0	0	0	1	26
75.7529296875	0.0999877716094488	155142	86	3	stim03_sf1_pattern1_cont2_shape2.png	0	86	0	252.146543632043	252.246531403653	0.0999877716094488	stim03_sf1_pattern1_cont2_shape2.png	1	1	2	2	1	2	0	0	0	0	0	0	0	0	0	0	0	0	1	26
76.2529296875	0.10000448667779	156166	87	15	stim15_sf2_pattern2_cont2_shape2.png	0	87	0	252.646526770353	252.746531257031	0.10000448667779	stim15_sf2_pattern2_cont2_shape2.png	2	2	2	2	1	4	0	0	0	0	0	0	0	0	0	0	0	0	1	26
76.7529296875	0.0999936365442409	157190	88	8	stim08_sf2_pattern1_cont1_shape1.png	0	88	0	253.146537473862	253.246531110406	0.0999936365442409	stim08_sf2_pattern1_cont1_shape1.png	2	1	1	1	1	3	0	0	0	0	0	0	0	0	0	0	0	0	1	26
77.2529296875	0.100006539403694	158214	89	10	stim10_sf2_pattern1_cont2_shape1.png	0	89	0	253.646513281001	253.746519820405	0.100006539403694	stim10_sf2_pattern1_cont2_shape1.png	2	1	2	1	1	4	0	0	0	0	0	0	0	0	0	0	0	0	1	26
77.7529296875	0.100007712389925	159238	90	13	stim13_sf2_pattern2_cont1_shape2.png	0	90	0	254.146518412821	254.246526125211	0.100007712389925	stim13_sf2_pattern2_cont1_shape2.png	2	2	1	2	1	3	0	0	0	0	0	0	0	0	0	0	0	0	1	26
78.2529296875	0.0999725227738963	160262	91	14	stim14_sf2_pattern2_cont2_shape1.png	0	91	0	254.646520905419	254.746493428192	0.0999725227738963	stim14_sf2_pattern2_cont2_shape1.png	2	2	2	1	1	4	0	0	0	0	0	0	0	0	0	0	0	0	1	26
78.7529296875	0.0999977419996867	161286	92	12	stim12_sf2_pattern2_cont1_shape1.png	0	92	0	255.146522518276	255.246520260276	0.0999977419996867	stim12_sf2_pattern2_cont1_shape1.png	2	2	1	1	1	3	0	0	0	0	0	0	0	0	0	0	0	0	1	26
79.2529296875	0.100005366413825	162310	93	10	stim10_sf2_pattern1_cont2_shape1.png	0	93	0	255.646497152429	255.746502518843	0.100005366413825	stim10_sf2_pattern1_cont2_shape1.png	2	1	2	1	1	4	0	0	0	0	0	0	0	0	0	0	0	0	1	26
79.7529296875	0.0999904108284682	163334	94	0	stim00_sf1_pattern1_cont1_shape1.png	0	94	0	256.146518999314	256.246509410143	0.0999904108284682	stim00_sf1_pattern1_cont1_shape1.png	1	1	1	1	1	1	0	0	0	0	0	0	0	0	0	0	0	0	1	26
80.2529296875	0.100003606934479	164358	95	9	stim09_sf2_pattern1_cont1_shape2.png	0	95	0	256.646483076584	256.746486683518	0.100003606934479	stim09_sf2_pattern1_cont1_shape2.png	2	1	1	2	1	3	0	0	0	0	0	0	0	0	0	0	0	0	1	26
80.7529296875	0.0999965690098179	165382	96	3	stim03_sf1_pattern1_cont2_shape2.png	0	96	0	257.146494366585	257.246490935595	0.0999965690098179	stim03_sf1_pattern1_cont2_shape2.png	1	1	2	2	1	2	0	0	0	0	0	0	0	0	0	0	0	0	1	26
81.25244140625	0.100000674468902	166405	97	11	stim11_sf2_pattern1_cont2_shape2.png	0	97	0	257.646467241255	257.746467915724	0.100000674468902	stim11_sf2_pattern1_cont2_shape2.png	2	1	2	2	1	4	0	0	0	0	0	0	0	0	0	0	0	0	1	26
81.75244140625	0.0999813201815414	167429	98	5	stim05_sf1_pattern2_cont1_shape2.png	0	98	0	258.146493193595	258.246474513777	0.0999813201815414	stim05_sf1_pattern2_cont1_shape2.png	1	2	1	2	1	1	0	0	0	0	0	0	0	0	0	0	0	0	1	26
82.25244140625	0.100002433948248	168453	99	14	stim14_sf2_pattern2_cont2_shape1.png	0	99	0	258.646450819437	258.746453253385	0.100002433948248	stim14_sf2_pattern2_cont2_shape1.png	2	2	2	1	1	4	0	0	0	0	0	0	0	0	0	0	0	0	1	26
82.75244140625	0.0999989149895555	169477	100	8	stim08_sf2_pattern1_cont1_shape1.png	0	100	0	259.146461522942	259.246460437931	0.0999989149895555	stim08_sf2_pattern1_cont1_shape1.png	2	1	1	1	1	3	0	0	0	0	0	0	0	0	0	0	0	0	1	26
83.25244140625	0.100003900184674	170501	101	13	stim13_sf2_pattern2_cont1_shape2.png	0	101	0	259.64644026255	259.746444162734	0.100003900184674	stim13_sf2_pattern2_cont1_shape2.png	2	2	1	2	1	3	0	0	0	0	0	0	0	0	0	0	0	0	1	26
83.75244140625	0.0999939297907986	171525	102	4	stim04_sf1_pattern2_cont1_shape1.png	0	102	0	260.146451259305	260.246445189096	0.0999939297907986	stim04_sf1_pattern2_cont1_shape1.png	1	2	1	1	1	1	0	0	0	0	0	0	0	0	0	0	0	0	1	26
84.25244140625	0.10000214070169	172549	103	2	stim02_sf1_pattern1_cont2_shape1.png	0	103	0	260.646420321769	260.746422462471	0.10000214070169	stim02_sf1_pattern1_cont2_shape1.png	1	1	2	1	1	2	0	0	0	0	0	0	0	0	0	0	0	0	1	26
84.75244140625	0.0999965690134559	173573	104	7	stim07_sf1_pattern2_cont2_shape2.png	0	104	0	261.14643425099	261.246430820003	0.0999965690134559	stim07_sf1_pattern2_cont2_shape2.png	1	2	2	2	1	2	0	0	0	0	0	0	0	0	0	0	0	0	1	26
85.25244140625	0.100008885379793	174597	105	15	stim15_sf2_pattern2_cont2_shape2.png	0	105	0	261.646408298649	261.746417184029	0.100008885379793	stim15_sf2_pattern2_cont2_shape2.png	2	2	2	2	1	4	0	0	0	0	0	0	0	0	0	0	0	0	1	26
85.75244140625	0.100003020441363	175621	106	6	stim06_sf1_pattern2_cont2_shape1.png	0	106	0	262.146402873586	262.246405894028	0.100003020441363	stim06_sf1_pattern2_cont2_shape1.png	1	2	2	1	1	2	0	0	0	0	0	0	0	0	0	0	0	0	1	26
86.25244140625	0.100017976030358	176645	107	1	stim01_sf1_pattern1_cont1_shape2.png	0	107	0	262.646395689037	262.746413665067	0.100017976030358	stim01_sf1_pattern1_cont1_shape2.png	1	1	1	2	1	1	0	0	0	0	0	0	0	0	0	0	0	0	1	26
86.75244140625	0.0999719362807809	177669	108	5	stim05_sf1_pattern2_cont1_shape2.png	0	108	0	263.146403753326	263.246375689607	0.0999719362807809	stim05_sf1_pattern2_cont1_shape2.png	1	2	1	2	1	1	0	0	0	0	0	0	0	0	0	0	0	0	1	26
87.25244140625	0.100020615249377	178693	109	7	stim07_sf1_pattern2_cont2_shape2.png	0	109	0	263.646382492934	263.746403108184	0.100020615249377	stim07_sf1_pattern2_cont2_shape2.png	1	2	2	2	1	2	0	0	0	0	0	0	0	0	0	0	0	0	1	26
87.75244140625	0.10000448667779	179717	110	0	stim00_sf1_pattern1_cont1_shape1.png	0	110	0	264.14636944345	264.246373930127	0.10000448667779	stim00_sf1_pattern1_cont1_shape1.png	1	1	1	1	1	1	0	0	0	0	0	0	0	0	0	0	0	0	1	26
88.25244140625	0.0999927568045678	180741	111	1	stim01_sf1_pattern1_cont1_shape2.png	0	111	0	264.646347010072	264.746339766876	0.0999927568045678	stim01_sf1_pattern1_cont1_shape2.png	1	1	1	2	1	1	0	0	0	0	0	0	0	0	0	0	0	0	1	26
88.75244140625	0.0999971555065713	181765	112	9	stim09_sf2_pattern1_cont1_shape2.png	0	112	0	265.146328975392	265.246326130899	0.0999971555065713	stim09_sf2_pattern1_cont1_shape2.png	2	1	1	2	1	3	0	0	0	0	0	0	0	0	0	0	0	0	1	26
89.25244140625	0.0999892378422373	182789	113	11	stim11_sf2_pattern1_cont2_shape2.png	0	113	0	265.64631885838	265.746308096222	0.0999892378422373	stim11_sf2_pattern1_cont2_shape2.png	2	1	2	2	1	4	0	0	0	0	0	0	0	0	0	0	0	0	1	26
89.75244140625	0.100007419143367	183813	114	4	stim04_sf1_pattern2_cont1_shape1.png	0	114	0	266.146303462923	266.246310882067	0.100007419143367	stim04_sf1_pattern2_cont1_shape1.png	1	2	1	1	1	1	0	0	0	0	0	0	0	0	0	0	0	0	1	26
90.25244140625	0.099989531088795	184837	115	13	stim13_sf2_pattern2_cont1_shape2.png	0	115	0	266.646305075781	266.74629460687	0.099989531088795	stim13_sf2_pattern2_cont1_shape2.png	2	2	1	2	1	3	0	0	0	0	0	0	0	0	0	0	0	0	1	26
90.75244140625	0.0999860121301026	185861	116	12	stim12_sf2_pattern2_cont1_shape1.png	0	116	0	267.146323990197	267.246310002327	0.0999860121301026	stim12_sf2_pattern2_cont1_shape1.png	2	2	1	1	1	3	0	0	0	0	0	0	0	0	0	0	0	0	1	26
91.25244140625	0.10001797602672	186885	117	6	stim06_sf1_pattern2_cont2_shape1.png	0	117	0	267.64628777422	267.746305750246	0.10001797602672	stim06_sf1_pattern2_cont2_shape1.png	1	2	2	1	1	2	0	0	0	0	0	0	0	0	0	0	0	0	1	26
91.75244140625	0.0999992082361132	187909	118	8	stim08_sf2_pattern1_cont1_shape1.png	0	118	0	268.146318711755	268.246317919991	0.0999992082361132	stim08_sf2_pattern1_cont1_shape1.png	2	1	1	1	1	3	0	0	0	0	0	0	0	0	0	0	0	0	1	26
92.25244140625	0.0999901175819105	188933	119	15	stim15_sf2_pattern2_cont2_shape2.png	0	119	0	268.646306542014	268.746296659596	0.0999901175819105	stim15_sf2_pattern2_cont2_shape2.png	2	2	2	2	1	4	0	0	0	0	0	0	0	0	0	0	0	0	1	26
92.75244140625	0.0999886513491219	189957	120	2	stim02_sf1_pattern1_cont2_shape1.png	0	120	0	269.146308154872	269.246296806221	0.0999886513491219	stim02_sf1_pattern1_cont2_shape1.png	1	1	2	1	1	2	0	0	0	0	0	0	0	0	0	0	0	0	1	26
93.25244140625	0.100031465379288	190981	121	10	stim10_sf2_pattern1_cont2_shape1.png	0	121	0	269.646287480973	269.746318946352	0.100031465379288	stim10_sf2_pattern1_cont2_shape1.png	2	1	2	1	1	4	0	0	0	0	0	0	0	0	0	0	0	0	1	26
93.75244140625	0.0999930500511255	192005	122	3	stim03_sf1_pattern1_cont2_shape2.png	0	122	0	270.146311380588	270.246304430639	0.0999930500511255	stim03_sf1_pattern1_cont2_shape2.png	1	1	2	2	1	2	0	0	0	0	0	0	0	0	0	0	0	0	1	26
94.25244140625	0.100015336804063	193029	123	14	stim14_sf2_pattern2_cont2_shape1.png	0	123	0	270.646272232141	270.746287568945	0.100015336804063	stim14_sf2_pattern2_cont2_shape1.png	2	2	2	1	1	4	0	0	0	0	0	0	0	0	0	0	0	0	1	26
94.75244140625	0.10001064485914	194053	124	13	stim13_sf2_pattern2_cont1_shape2.png	0	124	0	271.14627179227	271.246282437129	0.10001064485914	stim13_sf2_pattern2_cont1_shape2.png	2	2	1	2	1	3	0	0	0	0	0	0	0	0	0	0	0	0	1	26
95.25244140625	0.100033811355388	195077	125	8	stim08_sf2_pattern1_cont1_shape1.png	0	125	0	271.646238802005	271.74627261336	0.100033811355388	stim08_sf2_pattern1_cont1_shape1.png	2	1	1	1	1	3	0	0	0	0	0	0	0	0	0	0	0	0	1	26
95.75244140625	0.0999848391402338	196101	126	10	stim10_sf2_pattern1_cont2_shape1.png	0	126	0	272.146270619283	272.246255458424	0.0999848391402338	stim10_sf2_pattern1_cont2_shape1.png	2	1	2	1	1	4	0	0	0	0	0	0	0	0	0	0	0	0	1	26
96.25244140625	0.0999927568045678	197125	127	3	stim03_sf1_pattern1_cont2_shape2.png	0	127	0	272.646261968501	272.746254725305	0.0999927568045678	stim03_sf1_pattern1_cont2_shape2.png	1	1	2	2	1	2	0	0	0	0	0	0	0	0	0	0	0	0	1	26
96.75244140625	0.100019442263147	198149	128	5	stim05_sf1_pattern2_cont1_shape2.png	0	128	0	273.146235136421	273.246254578684	0.100019442263147	stim05_sf1_pattern2_cont1_shape2.png	1	2	1	2	1	1	0	0	0	0	0	0	0	0	0	0	0	0	1	26
97.25244140625	0.0999719362807809	199173	129	15	stim15_sf2_pattern2_cont2_shape2.png	0	129	0	273.646255517073	273.746227453354	0.0999719362807809	stim15_sf2_pattern2_cont2_shape2.png	2	2	2	2	1	4	0	0	0	0	0	0	0	0	0	0	0	0	1	26
97.75244140625	0.0999924635580101	200197	130	9	stim09_sf2_pattern1_cont1_shape2.png	0	130	0	274.146242760839	274.246235224397	0.0999924635580101	stim09_sf2_pattern1_cont1_shape2.png	2	1	1	2	1	3	0	0	0	0	0	0	0	0	0	0	0	0	1	26
98.25244140625	0.100018562523474	201221	131	14	stim14_sf2_pattern2_cont2_shape1.png	0	131	0	274.646214755769	274.746233318292	0.100018562523474	stim14_sf2_pattern2_cont2_shape1.png	2	2	2	1	1	4	0	0	0	0	0	0	0	0	0	0	0	0	1	26
98.751953125	0.0999783877123264	202244	132	0	stim00_sf1_pattern1_cont1_shape1.png	0	132	0	275.146225459277	275.246203846989	0.0999783877123264	stim00_sf1_pattern1_cont1_shape1.png	1	1	1	1	1	1	0	0	0	0	0	0	0	0	0	0	0	0	1	26
99.251953125	0.100018855770031	203268	133	12	stim12_sf2_pattern2_cont1_shape1.png	0	133	0	275.646195987974	275.746214843744	0.100018855770031	stim12_sf2_pattern2_cont1_shape1.png	2	2	1	1	1	3	0	0	0	0	0	0	0	0	0	0	0	0	1	26
99.751953125	0.100041142522969	204292	134	11	stim11_sf2_pattern1_cont2_shape2.png	0	134	0	276.146166516672	276.246207659195	0.100041142522969	stim11_sf2_pattern1_cont2_shape2.png	2	1	2	2	1	4	0	0	0	0	0	0	0	0	0	0	0	0	1	26
100.251953125	0.100017096287047	205316	135	1	stim01_sf1_pattern1_cont1_shape2.png	0	135	0	276.646184844598	276.746201940885	0.100017096287047	stim01_sf1_pattern1_cont1_shape2.png	1	1	1	2	1	1	0	0	0	0	0	0	0	0	0	0	0	0	1	26
100.751953125	0.099980733688426	206340	136	2	stim02_sf1_pattern1_cont2_shape1.png	0	136	0	277.146195841349	277.246176575038	0.099980733688426	stim02_sf1_pattern1_cont2_shape1.png	1	1	2	1	1	2	0	0	0	0	0	0	0	0	0	0	0	0	1	26
101.251953125	0.0999660713459889	207364	137	4	stim04_sf1_pattern2_cont1_shape1.png	0	137	0	277.646197160961	277.746163232307	0.0999660713459889	stim04_sf1_pattern2_cont1_shape1.png	1	2	1	1	1	1	0	0	0	0	0	0	0	0	0	0	0	0	1	26
101.751953125	0.0999763349864224	208388	138	6	stim06_sf1_pattern2_cont2_shape1.png	0	138	0	278.146181765504	278.24615810049	0.0999763349864224	stim06_sf1_pattern2_cont2_shape1.png	1	2	2	1	1	2	0	0	0	0	0	0	0	0	0	0	0	0	1	26
102.251953125	0.100000381218706	209412	139	7	stim07_sf1_pattern2_cont2_shape2.png	0	139	0	278.646172821478	278.746173202697	0.100000381218706	stim07_sf1_pattern2_cont2_shape2.png	1	2	2	2	1	2	0	0	0	0	0	0	0	0	0	0	0	0	1	26
102.751953125	0.0999566874488664	210436	140	5	stim05_sf1_pattern2_cont1_shape2.png	0	140	0	279.146171501867	279.246128189316	0.0999566874488664	stim05_sf1_pattern2_cont1_shape2.png	1	2	1	2	1	1	0	0	0	0	0	0	0	0	0	0	0	0	1	26
103.251953125	0.100014457068028	211460	141	8	stim08_sf2_pattern1_cont1_shape1.png	0	141	0	279.646142617057	279.746157074125	0.100014457068028	stim08_sf2_pattern1_cont1_shape1.png	2	1	1	1	1	3	0	0	0	0	0	0	0	0	0	0	0	0	1	26
103.751953125	0.099933520952618	212484	142	2	stim02_sf1_pattern1_cont2_shape1.png	0	142	0	280.146155080049	280.246088601001	0.099933520952618	stim02_sf1_pattern1_cont2_shape1.png	1	1	2	1	1	2	0	0	0	0	0	0	0	0	0	0	0	0	1	26
104.251953125	0.0999654848528735	213508	143	6	stim06_sf1_pattern2_cont2_shape1.png	0	143	0	280.646129714198	280.746095199051	0.0999654848528735	stim06_sf1_pattern2_cont2_shape1.png	1	2	2	1	1	2	0	0	0	0	0	0	0	0	0	0	0	0	1	26
104.751953125	0.0999643118630047	214532	144	12	stim12_sf2_pattern2_cont1_shape1.png	0	144	0	281.146114611991	281.246078923854	0.0999643118630047	stim12_sf2_pattern2_cont1_shape1.png	2	2	1	1	1	3	0	0	0	0	0	0	0	0	0	0	0	0	1	26
105.251953125	0.100010938105697	215556	145	9	stim09_sf2_pattern1_cont1_shape2.png	0	145	0	281.646078102764	281.746089040869	0.100010938105697	stim09_sf2_pattern1_cont1_shape2.png	2	1	1	2	1	3	0	0	0	0	0	0	0	0	0	0	0	0	1	26
105.751953125	0.0999939297907986	216580	146	1	stim01_sf1_pattern1_cont1_shape2.png	0	146	0	282.146101415885	282.246095345676	0.0999939297907986	stim01_sf1_pattern1_cont1_shape2.png	1	1	1	2	1	1	0	0	0	0	0	0	0	0	0	0	0	0	1	26
106.251953125	0.1000276531704	217604	147	7	stim07_sf1_pattern2_cont2_shape2.png	0	147	0	282.646057282243	282.746084935414	0.1000276531704	stim07_sf1_pattern2_cont2_shape2.png	1	2	2	2	1	2	0	0	0	0	0	0	0	0	0	0	0	0	1	26
106.751953125	0.100003900181036	218628	148	0	stim00_sf1_pattern1_cont1_shape1.png	0	148	0	283.1460864603	283.246090360481	0.100003900181036	stim00_sf1_pattern1_cont1_shape1.png	1	1	1	1	1	1	0	0	0	0	0	0	0	0	0	0	0	0	1	26
107.251953125	0.0999889445956796	219652	149	14	stim14_sf2_pattern2_cont2_shape1.png	0	149	0	283.646090125883	283.746079070479	0.0999889445956796	stim14_sf2_pattern2_cont2_shape1.png	2	2	2	1	1	4	0	0	0	0	0	0	0	0	0	0	0	0	1	26
107.751953125	0.100003900181036	220676	150	15	stim15_sf2_pattern2_cont2_shape2.png	0	150	0	284.146073264194	284.246077164375	0.100003900181036	stim15_sf2_pattern2_cont2_shape2.png	2	2	2	2	1	4	0	0	0	0	0	0	0	0	0	0	0	0	1	26
108.251953125	0.0999915838183369	221700	151	11	stim11_sf2_pattern1_cont2_shape2.png	0	151	0	284.646067839127	284.746059422945	0.0999915838183369	stim11_sf2_pattern1_cont2_shape2.png	2	1	2	2	1	4	0	0	0	0	0	0	0	0	0	0	0	0	1	26
108.751953125	0.0999959825203405	222724	152	4	stim04_sf1_pattern2_cont1_shape1.png	0	152	0	285.14608528731	285.24608126983	0.0999959825203405	stim04_sf1_pattern2_cont1_shape1.png	1	2	1	1	1	1	0	0	0	0	0	0	0	0	0	0	0	0	1	26
109.251953125	0.100000967711821	223748	153	10	stim10_sf2_pattern1_cont2_shape1.png	0	153	0	285.646048484839	285.746049452551	0.100000967711821	stim10_sf2_pattern1_cont2_shape1.png	2	1	2	1	1	4	0	0	0	0	0	0	0	0	0	0	0	0	1	26
109.751953125	0.099997448753129	224772	154	3	stim03_sf1_pattern1_cont2_shape2.png	0	154	0	286.146062707307	286.24606015606	0.099997448753129	stim03_sf1_pattern1_cont2_shape2.png	1	1	2	2	1	2	0	0	0	0	0	0	0	0	0	0	0	0	1	26
110.251953125	0.100049060187303	225796	155	13	stim13_sf2_pattern2_cont1_shape2.png	0	155	0	286.645998046391	286.746047106579	0.100049060187303	stim13_sf2_pattern2_cont1_shape2.png	2	2	1	2	1	3	0	0	0	0	0	0	0	0	0	0	0	0	1	26
110.751953125	0.100006832650251	226820	156	5	stim05_sf1_pattern2_cont1_shape2.png	0	156	0	287.146038367824	287.246045200474	0.100006832650251	stim05_sf1_pattern2_cont1_shape2.png	1	2	1	2	1	1	0	0	0	0	0	0	0	0	0	0	0	0	1	26
111.251953125	0.099983666154003	227844	157	4	stim04_sf1_pattern2_cont1_shape1.png	0	157	0	287.646040273929	287.746023940083	0.099983666154003	stim04_sf1_pattern2_cont1_shape1.png	1	2	1	1	1	1	0	0	0	0	0	0	0	0	0	0	0	0	1	26
111.751953125	0.0999986217429978	228868	158	9	stim09_sf2_pattern1_cont1_shape2.png	0	158	0	288.14603045016	288.246029071903	0.0999986217429978	stim09_sf2_pattern1_cont1_shape2.png	2	1	1	2	1	3	0	0	0	0	0	0	0	0	0	0	0	0	1	26
112.251953125	0.0999968622600136	229892	159	14	stim14_sf2_pattern2_cont2_shape1.png	0	159	0	288.646026784576	288.746023646836	0.0999968622600136	stim14_sf2_pattern2_cont2_shape1.png	2	2	2	1	1	4	0	0	0	0	0	0	0	0	0	0	0	0	1	26
112.751953125	0.0999997947292286	230916	160	3	stim03_sf1_pattern1_cont2_shape2.png	0	160	0	289.146015787821	289.24601558255	0.0999997947292286	stim03_sf1_pattern1_cont2_shape2.png	1	1	2	2	1	2	0	0	0	0	0	0	0	0	0	0	0	0	1	26
113.251953125	0.0999775079726533	231940	161	10	stim10_sf2_pattern1_cont2_shape1.png	0	161	0	289.646014761456	289.745992269429	0.0999775079726533	stim10_sf2_pattern1_cont2_shape1.png	2	1	2	1	1	4	0	0	0	0	0	0	0	0	0	0	0	0	1	26
113.751953125	0.0999892378422373	232964	162	15	stim15_sf2_pattern2_cont2_shape2.png	0	162	0	290.146011975612	290.246001213454	0.0999892378422373	stim15_sf2_pattern2_cont2_shape2.png	2	2	2	2	1	4	0	0	0	0	0	0	0	0	0	0	0	0	1	26
114.251953125	0.100003900184674	233988	163	0	stim00_sf1_pattern1_cont1_shape1.png	0	163	0	290.645977519114	290.745981419299	0.100003900184674	stim00_sf1_pattern1_cont1_shape1.png	1	1	1	1	1	1	0	0	0	0	0	0	0	0	0	0	0	0	1	26
114.751953125	0.100001260962017	235012	164	13	stim13_sf2_pattern2_cont1_shape2.png	0	164	0	291.145988515869	291.245989776831	0.100001260962017	stim13_sf2_pattern2_cont1_shape2.png	2	2	1	2	1	3	0	0	0	0	0	0	0	0	0	0	0	0	1	26
115.251953125	0.100005073170905	236036	165	7	stim07_sf1_pattern2_cont2_shape2.png	0	165	0	291.645966668984	291.745971742155	0.100005073170905	stim07_sf1_pattern2_cont2_shape2.png	1	2	2	2	1	2	0	0	0	0	0	0	0	0	0	0	0	0	1	26
115.751953125	0.100001554208575	237060	166	6	stim06_sf1_pattern2_cont2_shape1.png	0	166	0	292.145971214308	292.245972768516	0.100001554208575	stim06_sf1_pattern2_cont2_shape1.png	1	2	2	1	1	2	0	0	0	0	0	0	0	0	0	0	0	0	1	26
116.25146484375	0.0999983284964401	238083	167	11	stim11_sf2_pattern1_cont2_shape2.png	0	167	0	292.645946141707	292.745944470204	0.0999983284964401	stim11_sf2_pattern1_cont2_shape2.png	2	1	2	2	1	4	0	0	0	0	0	0	0	0	0	0	0	0	1	26
116.75146484375	0.100012404338486	239107	168	12	stim12_sf2_pattern2_cont1_shape1.png	0	168	0	293.145945701839	293.245958106178	0.100012404338486	stim12_sf2_pattern2_cont1_shape1.png	2	2	1	1	1	3	0	0	0	0	0	0	0	0	0	0	0	0	1	26
117.25146484375	0.0999995014790329	240131	169	2	stim02_sf1_pattern1_cont2_shape1.png	0	169	0	293.645932652358	293.745932153837	0.0999995014790329	stim02_sf1_pattern1_cont2_shape1.png	1	1	2	1	1	2	0	0	0	0	0	0	0	0	0	0	0	0	1	26
117.75146484375	0.0999971555065713	241155	170	1	stim01_sf1_pattern1_cont1_shape2.png	0	170	0	294.145945701839	294.245942857346	0.0999971555065713	stim01_sf1_pattern1_cont1_shape2.png	1	1	1	2	1	1	0	0	0	0	0	0	0	0	0	0	0	0	1	26
118.25146484375	0.0999995014790329	242179	171	8	stim08_sf2_pattern1_cont1_shape1.png	0	171	0	294.64591505755	294.745914559029	0.0999995014790329	stim08_sf2_pattern1_cont1_shape1.png	2	1	1	1	1	3	0	0	0	0	0	0	0	0	0	0	0	0	1	26
149.7509765625	0.100008885379793	306690	172	7	stim07_sf1_pattern2_cont2_shape2.png	1	0	0	326.145434279435	326.245443164815	0.100008885379793	stim07_sf1_pattern2_cont2_shape2.png	1	2	2	2	1	2	0	0	0	0	0	0	0	0	0	0	0	0	1	26
150.2509765625	0.100019442263147	307714	173	3	stim03_sf1_pattern1_cont2_shape2.png	1	1	0	326.645420350214	326.745439792478	0.100019442263147	stim03_sf1_pattern1_cont2_shape2.png	1	1	2	2	1	2	0	0	0	0	0	0	0	0	0	0	0	0	1	26
150.7509765625	0.100006246157136	308738	174	10	stim10_sf2_pattern1_cont2_shape1.png	1	2	0	327.145414045408	327.245420291565	0.100006246157136	stim10_sf2_pattern1_cont2_shape1.png	2	1	2	1	1	4	0	0	0	0	0	0	0	0	0	0	0	0	1	26
151.25048828125	0.100008298886678	309761	175	9	stim09_sf2_pattern1_cont1_shape2.png	1	3	0	327.645390732287	327.745399031173	0.100008298886678	stim09_sf2_pattern1_cont1_shape2.png	2	1	1	2	1	3	0	0	0	0	0	0	0	0	0	0	0	0	1	26
151.75048828125	0.0999780944657687	310785	176	0	stim00_sf1_pattern1_cont1_shape1.png	1	4	0	328.145411699432	328.245389793898	0.0999780944657687	stim00_sf1_pattern1_cont1_shape1.png	1	1	1	1	1	1	0	0	0	0	0	0	0	0	0	0	0	0	1	26
152.25048828125	0.10000448667779	311809	177	5	stim05_sf1_pattern2_cont1_shape2.png	1	5	0	328.645389852547	328.745394339225	0.10000448667779	stim05_sf1_pattern2_cont1_shape2.png	1	2	1	2	1	1	0	0	0	0	0	0	0	0	0	0	0	0	1	26
152.75048828125	0.0999871851163334	312833	178	6	stim06_sf1_pattern2_cont2_shape1.png	1	6	0	329.145381495015	329.245368680131	0.0999871851163334	stim06_sf1_pattern2_cont2_shape1.png	1	2	2	1	1	2	0	0	0	0	0	0	0	0	0	0	0	0	1	26
153.25048828125	0.0999997947292286	313857	179	12	stim12_sf2_pattern2_cont1_shape1.png	1	7	0	329.645386626831	329.74538642156	0.0999997947292286	stim12_sf2_pattern2_cont1_shape1.png	2	2	1	1	1	3	0	0	0	0	0	0	0	0	0	0	0	0	1	26
153.75048828125	0.0999965690134559	314881	180	8	stim08_sf2_pattern1_cont1_shape1.png	1	8	0	330.145395864107	330.24539243312	0.0999965690134559	stim08_sf2_pattern1_cont1_shape1.png	2	1	1	1	1	3	0	0	0	0	0	0	0	0	0	0	0	0	1	26
154.25048828125	0.100007712389925	315905	181	13	stim13_sf2_pattern2_cont1_shape2.png	1	9	0	330.645374603715	330.745382316105	0.100007712389925	stim13_sf2_pattern2_cont1_shape2.png	2	2	1	2	1	3	0	0	0	0	0	0	0	0	0	0	0	0	1	26
154.75048828125	0.0999848391402338	316929	182	2	stim02_sf1_pattern1_cont2_shape1.png	1	10	0	331.145380028782	331.245364867922	0.0999848391402338	stim02_sf1_pattern1_cont2_shape1.png	1	1	2	1	1	2	0	0	0	0	0	0	0	0	0	0	0	0	1	26
155.25048828125	0.0999956892737828	317953	183	11	stim11_sf2_pattern1_cont2_shape2.png	1	11	0	331.645398649951	331.745394339225	0.0999956892737828	stim11_sf2_pattern1_cont2_shape2.png	2	1	2	2	1	4	0	0	0	0	0	0	0	0	0	0	0	0	1	26
155.75048828125	0.0999470103051863	318977	184	1	stim01_sf1_pattern1_cont1_shape2.png	1	12	0	332.14538442748	332.245331437785	0.0999470103051863	stim01_sf1_pattern1_cont1_shape2.png	1	1	1	2	1	1	0	0	0	0	0	0	0	0	0	0	0	0	1	26
156.25048828125	0.0999816134280991	320001	185	14	stim14_sf2_pattern2_cont2_shape1.png	1	13	0	332.645376363194	332.745357976622	0.0999816134280991	stim14_sf2_pattern2_cont2_shape1.png	2	2	2	1	1	4	0	0	0	0	0	0	0	0	0	0	0	0	1	26
156.75048828125	0.10000448667779	321025	186	4	stim04_sf1_pattern2_cont1_shape1.png	1	14	0	333.145369471895	333.245373958573	0.10000448667779	stim04_sf1_pattern2_cont1_shape1.png	1	2	1	1	1	1	0	0	0	0	0	0	0	0	0	0	0	0	1	26
157.25048828125	0.100013577324717	322049	187	15	stim15_sf2_pattern2_cont2_shape2.png	1	15	0	333.645342639815	333.745356217139	0.100013577324717	stim15_sf2_pattern2_cont2_shape2.png	2	2	2	2	1	4	0	0	0	0	0	0	0	0	0	0	0	0	1	26
157.75048828125	0.0999769214795379	323073	188	0	stim00_sf1_pattern1_cont1_shape1.png	1	16	0	334.145352170333	334.245329091813	0.0999769214795379	stim00_sf1_pattern1_cont1_shape1.png	1	1	1	1	1	1	0	0	0	0	0	0	0	0	0	0	0	0	1	26
158.25048828125	0.100026480184169	324097	189	15	stim15_sf2_pattern2_cont2_shape2.png	1	17	0	334.645315074617	334.745341554801	0.100026480184169	stim15_sf2_pattern2_cont2_shape2.png	2	2	2	2	1	4	0	0	0	0	0	0	0	0	0	0	0	0	1	26
158.75048828125	0.0999992082361132	325121	190	13	stim13_sf2_pattern2_cont1_shape2.png	1	18	0	335.145337214748	335.245336422984	0.0999992082361132	stim13_sf2_pattern2_cont1_shape2.png	2	2	1	2	1	3	0	0	0	0	0	0	0	0	0	0	0	0	1	26
159.25048828125	0.0999883581025642	326145	191	5	stim05_sf1_pattern2_cont1_shape2.png	1	19	0	335.645339120852	335.745327478955	0.0999883581025642	stim05_sf1_pattern2_cont1_shape2.png	1	2	1	2	1	1	0	0	0	0	0	0	0	0	0	0	0	0	1	26
159.75048828125	0.0999983284928021	327169	192	9	stim09_sf2_pattern1_cont1_shape2.png	1	20	0	336.145322259163	336.245320587655	0.0999983284928021	stim09_sf2_pattern1_cont1_shape2.png	2	1	1	2	1	3	0	0	0	0	0	0	0	0	0	0	0	0	1	26
160.25048828125	0.0999939297944366	328193	193	7	stim07_sf1_pattern2_cont2_shape2.png	1	21	0	336.645317713836	336.74531164363	0.0999939297944366	stim07_sf1_pattern2_cont2_shape2.png	1	2	2	2	1	2	0	0	0	0	0	0	0	0	0	0	0	0	1	26
160.75048828125	0.0999789742054418	329217	194	8	stim08_sf2_pattern1_cont1_shape1.png	1	22	0	337.14530964955	337.245288623755	0.0999789742054418	stim08_sf2_pattern1_cont1_shape1.png	2	1	1	1	1	3	0	0	0	0	0	0	0	0	0	0	0	0	1	26
161.25048828125	0.0999980352462444	330241	195	14	stim14_sf2_pattern2_cont2_shape1.png	1	23	0	337.645283697209	337.745281732456	0.0999980352462444	stim14_sf2_pattern2_cont2_shape1.png	2	2	2	1	1	4	0	0	0	0	0	0	0	0	0	0	0	0	1	26
161.75048828125	0.0999986217393598	331265	196	10	stim10_sf2_pattern1_cont2_shape1.png	1	24	0	338.145292934485	338.245291556224	0.0999986217393598	stim10_sf2_pattern1_cont2_shape1.png	2	1	2	1	1	4	0	0	0	0	0	0	0	0	0	0	0	0	1	26
162.25048828125	0.0999625523872965	332289	197	3	stim03_sf1_pattern1_cont2_shape2.png	1	25	0	338.645285749935	338.745248302323	0.0999625523872965	stim03_sf1_pattern1_cont2_shape2.png	1	1	2	2	1	2	0	0	0	0	0	0	0	0	0	0	0	0	1	26
162.75048828125	0.0999962757632602	333313	198	6	stim06_sf1_pattern2_cont2_shape1.png	1	26	0	339.145279445132	339.245275720896	0.0999962757632602	stim06_sf1_pattern2_cont2_shape1.png	1	2	2	1	1	2	0	0	0	0	0	0	0	0	0	0	0	0	1	26
163.25048828125	0.100017096287047	334337	199	2	stim02_sf1_pattern1_cont2_shape1.png	1	27	0	339.645252319802	339.745269416089	0.100017096287047	stim02_sf1_pattern1_cont2_shape1.png	1	1	2	1	1	2	0	0	0	0	0	0	0	0	0	0	0	0	1	26
163.75048828125	0.0999780944657687	335361	200	11	stim11_sf2_pattern1_cont2_shape2.png	1	28	0	340.14526390305	340.245241997516	0.0999780944657687	stim11_sf2_pattern1_cont2_shape2.png	2	1	2	2	1	4	0	0	0	0	0	0	0	0	0	0	0	0	1	26
164.25048828125	0.100008005636482	336385	201	1	stim01_sf1_pattern1_cont1_shape2.png	1	29	0	340.645228273566	340.745236279203	0.100008005636482	stim01_sf1_pattern1_cont1_shape2.png	1	1	1	2	1	1	0	0	0	0	0	0	0	0	0	0	0	0	1	26
164.75048828125	0.100013577328355	337409	202	12	stim12_sf2_pattern2_cont1_shape1.png	1	30	0	341.1452228485	341.245236425828	0.100013577328355	stim12_sf2_pattern2_cont1_shape1.png	2	2	1	1	1	3	0	0	0	0	0	0	0	0	0	0	0	0	1	26
165.25048828125	0.0999675375824154	338433	203	4	stim04_sf1_pattern2_cont1_shape1.png	1	31	0	341.645230326292	341.745197863875	0.0999675375824154	stim04_sf1_pattern2_cont1_shape1.png	1	2	1	1	1	1	0	0	0	0	0	0	0	0	0	0	0	0	1	26
165.75048828125	0.0999625523872965	339457	204	11	stim11_sf2_pattern1_cont2_shape2.png	1	32	0	342.145223434993	342.24518598738	0.0999625523872965	stim11_sf2_pattern1_cont2_shape2.png	2	1	2	2	1	4	0	0	0	0	0	0	0	0	0	0	0	0	1	26
166.25048828125	0.099966951085662	340481	205	12	stim12_sf2_pattern2_cont1_shape1.png	1	33	0	342.645200708368	342.745167659454	0.099966951085662	stim12_sf2_pattern2_cont1_shape1.png	2	2	1	1	1	3	0	0	0	0	0	0	0	0	0	0	0	0	1	26
166.75048828125	0.0999968622600136	341505	206	8	stim08_sf2_pattern1_cont1_shape1.png	1	34	0	343.14517622226	343.245173084521	0.0999968622600136	stim08_sf2_pattern1_cont1_shape1.png	2	1	1	1	1	3	0	0	0	0	0	0	0	0	0	0	0	0	1	26
167.25048828125	0.100005366417463	342529	207	4	stim04_sf1_pattern2_cont1_shape1.png	1	35	0	343.645168744468	343.745174110885	0.100005366417463	stim04_sf1_pattern2_cont1_shape1.png	1	2	1	1	1	1	0	0	0	0	0	0	0	0	0	0	0	0	1	26
167.75048828125	0.100011524598813	343553	208	2	stim02_sf1_pattern1_cont2_shape1.png	1	36	0	344.145165665377	344.245177189976	0.100011524598813	stim02_sf1_pattern1_cont2_shape1.png	1	1	2	1	1	2	0	0	0	0	0	0	0	0	0	0	0	0	1	26
168.25	0.100018269273278	344576	209	9	stim09_sf2_pattern1_cont1_shape2.png	1	37	0	344.645140886023	344.745159155296	0.100018269273278	stim09_sf2_pattern1_cont1_shape2.png	2	1	1	2	1	3	0	0	0	0	0	0	0	0	0	0	0	0	1	26
168.75	0.100022667975281	345600	210	5	stim05_sf1_pattern2_cont1_shape2.png	1	38	0	345.145148363816	345.245171031791	0.100022667975281	stim05_sf1_pattern2_cont1_shape2.png	1	2	1	2	1	1	0	0	0	0	0	0	0	0	0	0	0	0	1	26
169.25	0.100005659664021	346624	211	0	stim00_sf1_pattern1_cont1_shape1.png	1	39	0	345.645155255115	345.745160914779	0.100005659664021	stim00_sf1_pattern1_cont1_shape1.png	1	1	1	1	1	1	0	0	0	0	0	0	0	0	0	0	0	0	1	26
169.75	0.0999997947255906	347648	212	1	stim01_sf1_pattern1_cont1_shape2.png	1	40	0	346.145161559922	346.245161354647	0.0999997947255906	stim01_sf1_pattern1_cont1_shape2.png	1	1	1	2	1	1	0	0	0	0	0	0	0	0	0	0	0	0	1	26
170.25	0.0999930500474875	348672	213	6	stim06_sf1_pattern2_cont2_shape1.png	1	41	0	346.645157601091	346.745150651139	0.0999930500474875	stim06_sf1_pattern2_cont2_shape1.png	1	2	2	1	1	2	0	0	0	0	0	0	0	0	0	0	0	0	1	26
170.75	0.100000087972148	349696	214	13	stim13_sf2_pattern2_cont1_shape2.png	1	42	0	347.145165958624	347.245166046596	0.100000087972148	stim13_sf2_pattern2_cont1_shape2.png	2	2	1	2	1	3	0	0	0	0	0	0	0	0	0	0	0	0	1	26
171.25	0.0999924635580101	350720	215	10	stim10_sf2_pattern1_cont2_shape1.png	1	43	0	347.645140006283	347.745132469841	0.0999924635580101	stim10_sf2_pattern1_cont2_shape1.png	2	1	2	1	1	4	0	0	0	0	0	0	0	0	0	0	0	0	1	26
171.75	0.0999953960235871	351744	216	7	stim07_sf1_pattern2_cont2_shape2.png	1	44	0	348.145147190829	348.245142586853	0.0999953960235871	stim07_sf1_pattern2_cont2_shape2.png	1	2	2	2	1	2	0	0	0	0	0	0	0	0	0	0	0	0	1	26
172.25	0.100004486674152	352768	217	15	stim15_sf2_pattern2_cont2_shape2.png	1	45	0	348.645144404985	348.745148891659	0.100004486674152	stim15_sf2_pattern2_cont2_shape2.png	2	2	2	2	1	4	0	0	0	0	0	0	0	0	0	0	0	0	1	26
172.75	0.0999936365442409	353792	218	3	stim03_sf1_pattern1_cont2_shape2.png	1	46	0	349.14513340823	349.245127044775	0.0999936365442409	stim03_sf1_pattern1_cont2_shape2.png	1	1	2	2	1	2	0	0	0	0	0	0	0	0	0	0	0	0	1	26
173.25	0.100013577324717	354816	219	14	stim14_sf2_pattern2_cont2_shape1.png	1	47	0	349.64510745589	349.745121033215	0.100013577324717	stim14_sf2_pattern2_cont2_shape1.png	2	2	2	1	1	4	0	0	0	0	0	0	0	0	0	0	0	0	1	26
173.75	0.100005073170905	355840	220	5	stim05_sf1_pattern2_cont1_shape2.png	1	48	0	350.145116986409	350.245122059579	0.100005073170905	stim05_sf1_pattern2_cont1_shape2.png	1	2	1	2	1	1	0	0	0	0	0	0	0	0	0	0	0	0	1	26
174.25	0.0999681240755308	356864	221	9	stim09_sf2_pattern1_cont1_shape2.png	1	49	0	350.645113907318	350.745082031393	0.0999681240755308	stim09_sf2_pattern1_cont1_shape2.png	2	1	1	2	1	3	0	0	0	0	0	0	0	0	0	0	0	0	1	26
174.75	0.0999786809588841	357888	222	13	stim13_sf2_pattern2_cont1_shape2.png	1	50	0	351.145102910563	351.245081591522	0.0999786809588841	stim13_sf2_pattern2_cont1_shape2.png	2	2	1	2	1	3	0	0	0	0	0	0	0	0	0	0	0	0	1	26
175.25	0.100012404338486	358912	223	8	stim08_sf2_pattern1_cont1_shape1.png	1	51	0	351.645061416144	351.745073820483	0.100012404338486	stim08_sf2_pattern1_cont1_shape1.png	2	1	1	1	1	3	0	0	0	0	0	0	0	0	0	0	0	0	1	26
175.75	0.0999992082324752	359936	224	4	stim04_sf1_pattern2_cont1_shape1.png	1	52	0	352.145088248224	352.245087456457	0.0999992082324752	stim04_sf1_pattern2_cont1_shape1.png	1	2	1	1	1	1	0	0	0	0	0	0	0	0	0	0	0	0	1	26
176.25	0.100031465379288	360960	225	2	stim02_sf1_pattern1_cont2_shape1.png	1	53	0	352.645030918477	352.745062383856	0.100031465379288	stim02_sf1_pattern1_cont2_shape1.png	1	1	2	1	1	2	0	0	0	0	0	0	0	0	0	0	0	0	1	26
176.75	0.0999977419996867	361984	226	6	stim06_sf1_pattern2_cont2_shape1.png	1	54	0	353.145072999392	353.245070741392	0.0999977419996867	stim06_sf1_pattern2_cont2_shape1.png	1	2	2	1	1	2	0	0	0	0	0	0	0	0	0	0	0	0	1	26
177.25	0.100020615249377	363008	227	15	stim15_sf2_pattern2_cont2_shape2.png	1	55	0	353.645044407829	353.745065023078	0.100020615249377	stim15_sf2_pattern2_cont2_shape2.png	2	2	2	2	1	4	0	0	0	0	0	0	0	0	0	0	0	0	1	26
177.75	0.0999968622600136	364032	228	10	stim10_sf2_pattern1_cont2_shape1.png	1	56	0	354.145058923543	354.245055785803	0.0999968622600136	stim10_sf2_pattern1_cont2_shape1.png	2	1	2	1	1	4	0	0	0	0	0	0	0	0	0	0	0	0	1	26
178.25	0.099977801219211	365056	229	14	stim14_sf2_pattern2_cont2_shape1.png	1	57	0	354.645052032243	354.745029833462	0.099977801219211	stim14_sf2_pattern2_cont2_shape1.png	2	2	2	1	1	4	0	0	0	0	0	0	0	0	0	0	0	0	1	26
178.75	0.10000214070169	366080	230	0	stim00_sf1_pattern1_cont1_shape1.png	1	58	0	355.145041915232	355.245044055933	0.10000214070169	stim00_sf1_pattern1_cont1_shape1.png	1	1	1	1	1	1	0	0	0	0	0	0	0	0	0	0	0	0	1	26
179.25	0.0999810269313457	367104	231	3	stim03_sf1_pattern1_cont2_shape2.png	1	59	0	355.645016842631	355.744997869562	0.0999810269313457	stim03_sf1_pattern1_cont2_shape2.png	1	1	2	2	1	2	0	0	0	0	0	0	0	0	0	0	0	0	1	26
179.75	0.0999915838183369	368128	232	7	stim07_sf1_pattern2_cont2_shape2.png	1	60	0	356.145030185358	356.245021769177	0.0999915838183369	stim07_sf1_pattern2_cont2_shape2.png	1	2	2	2	1	2	0	0	0	0	0	0	0	0	0	0	0	0	1	26
180.25	0.0999695903083193	369152	233	11	stim11_sf2_pattern1_cont2_shape2.png	1	61	0	356.64500863172	356.744978222028	0.0999695903083193	stim11_sf2_pattern1_cont2_shape2.png	2	1	2	2	1	4	0	0	0	0	0	0	0	0	0	0	0	0	1	26
180.75	0.0999736957601272	370176	234	12	stim12_sf2_pattern2_cont1_shape1.png	1	62	0	357.145013177047	357.244986872807	0.0999736957601272	stim12_sf2_pattern2_cont1_shape1.png	2	2	1	1	1	3	0	0	0	0	0	0	0	0	0	0	0	0	1	26
181.25	0.100002433948248	371200	235	1	stim01_sf1_pattern1_cont1_shape2.png	1	63	0	357.644983119248	357.744985553196	0.100002433948248	stim01_sf1_pattern1_cont1_shape2.png	1	1	1	2	1	1	0	0	0	0	0	0	0	0	0	0	0	0	1	26
181.75	0.0999965690134559	372224	236	8	stim08_sf2_pattern1_cont1_shape1.png	1	64	0	358.144977987431	358.244974556445	0.0999965690134559	stim08_sf2_pattern1_cont1_shape1.png	2	1	1	1	1	3	0	0	0	0	0	0	0	0	0	0	0	0	1	26
182.25	0.0999965690098179	373248	237	9	stim09_sf2_pattern1_cont1_shape2.png	1	65	0	358.644956727039	358.744953296049	0.0999965690098179	stim09_sf2_pattern1_cont1_shape2.png	2	1	1	2	1	3	0	0	0	0	0	0	0	0	0	0	0	0	1	26
182.75	0.0999783877123264	374272	238	11	stim11_sf2_pattern1_cont2_shape2.png	1	66	0	359.144960979116	359.244939366828	0.0999783877123264	stim11_sf2_pattern1_cont2_shape2.png	2	1	2	2	1	4	0	0	0	0	0	0	0	0	0	0	0	0	1	26
183.25	0.0999971555065713	375296	239	14	stim14_sf2_pattern2_cont2_shape1.png	1	67	0	359.644943530933	359.74494068644	0.0999971555065713	stim14_sf2_pattern2_cont2_shape1.png	2	2	2	1	1	4	0	0	0	0	0	0	0	0	0	0	0	0	1	26
183.75	0.0999995014790329	376320	240	10	stim10_sf2_pattern1_cont2_shape1.png	1	68	0	360.144954527688	360.244954029167	0.0999995014790329	stim10_sf2_pattern1_cont2_shape1.png	2	1	2	1	1	4	0	0	0	0	0	0	0	0	0	0	0	0	1	26
184.25	0.099994516283914	377344	241	2	stim02_sf1_pattern1_cont2_shape1.png	1	69	0	360.644947343142	360.744941859426	0.099994516283914	stim02_sf1_pattern1_cont2_shape1.png	1	1	2	1	1	2	0	0	0	0	0	0	0	0	0	0	0	0	1	26
184.75	0.100029705899942	378368	242	1	stim01_sf1_pattern1_cont1_shape2.png	1	70	0	361.144910247422	361.244939953322	0.100029705899942	stim01_sf1_pattern1_cont1_shape2.png	1	1	1	2	1	1	0	0	0	0	0	0	0	0	0	0	0	0	1	26
185.25	0.0999367466647527	379392	243	5	stim05_sf1_pattern2_cont1_shape2.png	1	71	0	361.644919191451	361.744855938116	0.0999367466647527	stim05_sf1_pattern2_cont1_shape2.png	1	2	1	2	1	1	0	0	0	0	0	0	0	0	0	0	0	0	1	26
185.74951171875	0.100001554208575	380415	244	4	stim04_sf1_pattern2_cont1_shape1.png	1	72	0	362.144933707164	362.244935261373	0.100001554208575	stim04_sf1_pattern2_cont1_shape1.png	1	2	1	1	1	1	0	0	0	0	0	0	0	0	0	0	0	0	1	26
186.24951171875	0.100039969540376	381439	245	15	stim15_sf2_pattern2_cont2_shape2.png	1	73	0	362.644900423653	362.744940393193	0.100039969540376	stim15_sf2_pattern2_cont2_shape2.png	2	2	2	2	1	4	0	0	0	0	0	0	0	0	0	0	0	0	1	26
186.74951171875	0.0999798539451149	382463	246	6	stim06_sf1_pattern2_cont2_shape1.png	1	74	0	363.144942211322	363.244922065267	0.0999798539451149	stim06_sf1_pattern2_cont2_shape1.png	1	2	2	1	1	2	0	0	0	0	0	0	0	0	0	0	0	0	1	26
187.24951171875	0.100017389533605	383487	247	13	stim13_sf2_pattern2_cont1_shape2.png	1	75	0	363.644882535602	363.744899925136	0.100017389533605	stim13_sf2_pattern2_cont1_shape2.png	2	2	1	2	1	3	0	0	0	0	0	0	0	0	0	0	0	0	1	26
187.74951171875	0.100000967715459	384511	248	3	stim03_sf1_pattern1_cont2_shape2.png	1	76	0	364.144919338072	364.244920305788	0.100000967715459	stim03_sf1_pattern1_cont2_shape2.png	1	1	2	2	1	2	0	0	0	0	0	0	0	0	0	0	0	0	1	26
188.24951171875	0.100034984341619	385535	249	7	stim07_sf1_pattern2_cont2_shape2.png	1	77	0	364.644866700273	364.744901684615	0.100034984341619	stim07_sf1_pattern2_cont2_shape2.png	1	2	2	2	1	2	0	0	0	0	0	0	0	0	0	0	0	0	1	26
188.74951171875	0.100016509793932	386559	250	0	stim00_sf1_pattern1_cont1_shape1.png	1	78	0	365.144878870015	365.244895379808	0.100016509793932	stim00_sf1_pattern1_cont1_shape1.png	1	1	1	1	1	1	0	0	0	0	0	0	0	0	0	0	0	0	1	26
189.24951171875	0.100014750314585	387583	251	12	stim12_sf2_pattern2_cont1_shape1.png	1	79	0	365.644873151701	365.744887902016	0.100014750314585	stim12_sf2_pattern2_cont1_shape1.png	2	2	1	1	1	3	0	0	0	0	0	0	0	0	0	0	0	0	1	26
189.74951171875	0.0999924635580101	388607	252	7	stim07_sf1_pattern2_cont2_shape2.png	1	80	0	366.144864500922	366.24485696448	0.0999924635580101	stim07_sf1_pattern2_cont2_shape2.png	1	2	2	2	1	2	0	0	0	0	0	0	0	0	0	0	0	0	1	26
190.24951171875	0.0999845458936761	389631	253	15	stim15_sf2_pattern2_cont2_shape2.png	1	81	0	366.644875790924	366.744860336818	0.0999845458936761	stim15_sf2_pattern2_cont2_shape2.png	2	2	2	2	1	4	0	0	0	0	0	0	0	0	0	0	0	0	1	26
190.74951171875	0.100007419143367	390655	254	2	stim02_sf1_pattern1_cont2_shape1.png	1	82	0	367.144855703518	367.244863122662	0.100007419143367	stim02_sf1_pattern1_cont2_shape1.png	1	1	2	1	1	2	0	0	0	0	0	0	0	0	0	0	0	0	1	26
191.24951171875	0.0999980352462444	391679	255	6	stim06_sf1_pattern2_cont2_shape1.png	1	83	0	367.644840014815	367.744838050061	0.0999980352462444	stim06_sf1_pattern2_cont2_shape1.png	1	2	2	1	1	2	0	0	0	0	0	0	0	0	0	0	0	0	1	26
191.74951171875	0.0999995014826709	392703	256	5	stim05_sf1_pattern2_cont1_shape2.png	1	84	0	368.144852184556	368.244851686039	0.0999995014826709	stim05_sf1_pattern2_cont1_shape2.png	1	2	1	2	1	1	0	0	0	0	0	0	0	0	0	0	0	0	1	26
192.24951171875	0.100016803040489	393727	257	0	stim00_sf1_pattern1_cont1_shape1.png	1	85	0	368.644823886243	368.744840689284	0.100016803040489	stim00_sf1_pattern1_cont1_shape1.png	1	1	1	1	1	1	0	0	0	0	0	0	0	0	0	0	0	0	1	26
192.74951171875	0.0999980352462444	394751	258	12	stim12_sf2_pattern2_cont1_shape1.png	1	86	0	369.144837228971	369.244835264217	0.0999980352462444	stim12_sf2_pattern2_cont1_shape1.png	2	2	1	1	1	3	0	0	0	0	0	0	0	0	0	0	0	0	1	26
193.24951171875	0.0999968622600136	395775	259	3	stim03_sf1_pattern1_cont2_shape2.png	1	87	0	369.644830924164	369.744827786424	0.0999968622600136	stim03_sf1_pattern1_cont2_shape2.png	1	1	2	2	1	2	0	0	0	0	0	0	0	0	0	0	0	0	1	26
193.74951171875	0.0999971555065713	396799	260	11	stim11_sf2_pattern1_cont2_shape2.png	1	88	0	370.144821686892	370.244818842399	0.0999971555065713	stim11_sf2_pattern1_cont2_shape2.png	2	1	2	2	1	4	0	0	0	0	0	0	0	0	0	0	0	0	1	26
194.24951171875	0.0999795606985572	397823	261	14	stim14_sf2_pattern2_cont2_shape1.png	1	89	0	370.644816261825	370.744795822524	0.0999795606985572	stim14_sf2_pattern2_cont2_shape1.png	2	2	2	1	1	4	0	0	0	0	0	0	0	0	0	0	0	0	1	26
194.74951171875	0.0999942230373563	398847	262	4	stim04_sf1_pattern2_cont1_shape1.png	1	90	0	371.144809663772	371.24480388681	0.0999942230373563	stim04_sf1_pattern2_cont1_shape1.png	1	2	1	1	1	1	0	0	0	0	0	0	0	0	0	0	0	0	1	26
195.24951171875	0.100001260962017	399871	263	8	stim08_sf2_pattern1_cont1_shape1.png	1	91	0	371.64477931273	371.744780573692	0.100001260962017	stim08_sf2_pattern1_cont1_shape1.png	2	1	1	1	1	3	0	0	0	0	0	0	0	0	0	0	0	0	1	26
195.74951171875	0.100013284078159	400895	264	13	stim13_sf2_pattern2_cont1_shape2.png	1	92	0	372.144774767406	372.244788051485	0.100013284078159	stim13_sf2_pattern2_cont1_shape2.png	2	2	1	2	1	3	0	0	0	0	0	0	0	0	0	0	0	0	1	26
196.24951171875	0.100010938105697	401919	265	1	stim01_sf1_pattern1_cont1_shape2.png	1	93	0	372.644749401556	372.744760339661	0.100010938105697	stim01_sf1_pattern1_cont1_shape2.png	1	1	1	2	1	1	0	0	0	0	0	0	0	0	0	0	0	0	1	26
196.74951171875	0.100005952910578	402943	266	10	stim10_sf2_pattern1_cont2_shape1.png	1	94	0	373.144776526886	373.244782479796	0.100005952910578	stim10_sf2_pattern1_cont2_shape1.png	2	1	2	1	1	4	0	0	0	0	0	0	0	0	0	0	0	0	1	26
197.24951171875	0.0999909973215836	403967	267	9	stim09_sf2_pattern1_cont1_shape2.png	1	95	0	373.644740310909	373.74473130823	0.0999909973215836	stim09_sf2_pattern1_cont1_shape2.png	2	1	1	2	1	3	0	0	0	0	0	0	0	0	0	0	0	0	1	26
197.74951171875	0.100000674468902	404991	268	14	stim14_sf2_pattern2_cont2_shape1.png	1	96	0	374.144718170774	374.244718845242	0.100000674468902	stim14_sf2_pattern2_cont2_shape1.png	2	2	2	1	1	4	0	0	0	0	0	0	0	0	0	0	0	0	1	26
198.24951171875	0.100014750310947	406015	269	13	stim13_sf2_pattern2_cont1_shape2.png	1	97	0	374.64470365506	374.744718405371	0.100014750310947	stim13_sf2_pattern2_cont1_shape2.png	2	2	1	2	1	3	0	0	0	0	0	0	0	0	0	0	0	0	1	26
198.74951171875	0.100054925125733	407039	270	2	stim02_sf1_pattern1_cont2_shape1.png	1	98	0	375.14468737986	375.244742304985	0.100054925125733	stim02_sf1_pattern1_cont2_shape1.png	1	1	2	1	1	2	0	0	0	0	0	0	0	0	0	0	0	0	1	26
199.24951171875	0.100022374732362	408063	271	8	stim08_sf2_pattern1_cont1_shape1.png	1	99	0	375.644684887262	375.744707261994	0.100022374732362	stim08_sf2_pattern1_cont1_shape1.png	2	1	1	1	1	3	0	0	0	0	0	0	0	0	0	0	0	0	1	26
199.74951171875	0.0999860121264646	409087	272	1	stim01_sf1_pattern1_cont1_shape2.png	1	100	0	376.144715238308	376.244701250434	0.0999860121264646	stim01_sf1_pattern1_cont1_shape2.png	1	1	1	2	1	1	0	0	0	0	0	0	0	0	0	0	0	0	1	26
200.24951171875	0.099994516283914	410111	273	12	stim12_sf2_pattern2_cont1_shape1.png	1	101	0	376.644705121293	376.744699637577	0.099994516283914	stim12_sf2_pattern2_cont1_shape1.png	2	2	1	1	1	3	0	0	0	0	0	0	0	0	0	0	0	0	1	26
200.74951171875	0.0999898243353528	411135	274	5	stim05_sf1_pattern2_cont1_shape2.png	1	102	0	377.144708786876	377.244698611212	0.0999898243353528	stim05_sf1_pattern2_cont1_shape2.png	1	2	1	2	1	1	0	0	0	0	0	0	0	0	0	0	0	0	1	26
201.24951171875	0.100002727194806	412159	275	6	stim06_sf1_pattern2_cont2_shape1.png	1	103	0	377.644689285964	377.744692013159	0.100002727194806	stim06_sf1_pattern2_cont2_shape1.png	1	2	2	1	1	2	0	0	0	0	0	0	0	0	0	0	0	0	1	26
201.74951171875	0.100021494989051	413183	276	15	stim15_sf2_pattern2_cont2_shape2.png	1	104	0	378.144689725836	378.244711220825	0.100021494989051	stim15_sf2_pattern2_cont2_shape2.png	2	2	2	2	1	4	0	0	0	0	0	0	0	0	0	0	0	0	1	26
202.24951171875	0.0999948095341097	414207	277	3	stim03_sf1_pattern1_cont2_shape2.png	1	105	0	378.644707467265	378.744702276799	0.0999948095341097	stim03_sf1_pattern1_cont2_shape2.png	1	1	2	2	1	2	0	0	0	0	0	0	0	0	0	0	0	0	1	26
202.74951171875	0.0999989149859175	415231	278	0	stim00_sf1_pattern1_cont1_shape1.png	1	106	0	379.144689139343	379.244688054328	0.0999989149859175	stim00_sf1_pattern1_cont1_shape1.png	1	1	1	1	1	1	0	0	0	0	0	0	0	0	0	0	0	0	1	26
203.2490234375	0.0999971555065713	416254	279	11	stim11_sf2_pattern1_cont2_shape2.png	1	107	0	379.644662014012	379.744659169519	0.0999971555065713	stim11_sf2_pattern1_cont2_shape2.png	2	1	2	2	1	4	0	0	0	0	0	0	0	0	0	0	0	0	1	26
203.7490234375	0.0999604996577546	417278	280	4	stim04_sf1_pattern2_cont1_shape1.png	1	108	0	380.144676236483	380.244636736141	0.0999604996577546	stim04_sf1_pattern2_cont1_shape1.png	1	2	1	1	1	1	0	0	0	0	0	0	0	0	0	0	0	0	1	26
204.2490234375	0.0999977419996867	418302	281	9	stim09_sf2_pattern1_cont1_shape2.png	1	109	0	380.64464764492	380.74464538692	0.0999977419996867	stim09_sf2_pattern1_cont1_shape2.png	2	1	1	2	1	3	0	0	0	0	0	0	0	0	0	0	0	0	1	26
204.7490234375	0.0999654848528735	419326	282	10	stim10_sf2_pattern1_cont2_shape1.png	1	110	0	381.144659228168	381.244624713021	0.0999654848528735	stim10_sf2_pattern1_cont2_shape1.png	2	1	2	1	1	4	0	0	0	0	0	0	0	0	0	0	0	0	1	26
205.2490234375	0.100014457068028	420350	283	7	stim07_sf1_pattern2_cont2_shape2.png	1	111	0	381.644618320242	381.74463277731	0.100014457068028	stim07_sf1_pattern2_cont2_shape2.png	1	2	2	2	1	2	0	0	0	0	0	0	0	0	0	0	0	0	1	26
205.7490234375	0.0999716430342232	421374	284	9	stim09_sf2_pattern1_cont1_shape2.png	1	112	0	382.14464280635	382.244614449384	0.0999716430342232	stim09_sf2_pattern1_cont1_shape2.png	2	1	1	2	1	3	0	0	0	0	0	0	0	0	0	0	0	0	1	26
206.2490234375	0.099997448753129	422398	285	5	stim05_sf1_pattern2_cont1_shape2.png	1	113	0	382.644618320242	382.744615768996	0.099997448753129	stim05_sf1_pattern2_cont1_shape2.png	1	2	1	2	1	1	0	0	0	0	0	0	0	0	0	0	0	0	1	26
206.7490234375	0.0999980352498824	423422	286	10	stim10_sf2_pattern1_cont2_shape1.png	1	114	0	383.144627850761	383.244625886011	0.0999980352498824	stim10_sf2_pattern1_cont2_shape1.png	2	1	2	1	1	4	0	0	0	0	0	0	0	0	0	0	0	0	1	26
207.2490234375	0.100003313687921	424446	287	3	stim03_sf1_pattern1_cont2_shape2.png	1	115	0	383.644598086215	383.744601399903	0.100003313687921	stim03_sf1_pattern1_cont2_shape2.png	1	1	2	2	1	2	0	0	0	0	0	0	0	0	0	0	0	0	1	26
207.7490234375	0.0999959825167025	425470	288	2	stim02_sf1_pattern1_cont2_shape1.png	1	116	0	384.144615827645	384.244611810162	0.0999959825167025	stim02_sf1_pattern1_cont2_shape1.png	1	1	2	1	1	2	0	0	0	0	0	0	0	0	0	0	0	0	1	26
208.2490234375	0.100017389533605	426494	289	7	stim07_sf1_pattern2_cont2_shape2.png	1	117	0	384.644570814264	384.744588203797	0.100017389533605	stim07_sf1_pattern2_cont2_shape2.png	1	2	2	2	1	2	0	0	0	0	0	0	0	0	0	0	0	0	1	26
208.7490234375	0.0999971555065713	427518	290	11	stim11_sf2_pattern1_cont2_shape2.png	1	118	0	385.144599112577	385.244596268083	0.0999971555065713	stim11_sf2_pattern1_cont2_shape2.png	2	1	2	2	1	4	0	0	0	0	0	0	0	0	0	0	0	0	1	26
209.2490234375	0.100014457068028	428542	291	1	stim01_sf1_pattern1_cont1_shape2.png	1	119	0	385.64455908439	385.744573541459	0.100014457068028	stim01_sf1_pattern1_cont1_shape2.png	1	1	1	2	1	1	0	0	0	0	0	0	0	0	0	0	0	0	1	26
209.7490234375	0.0999962757668982	429566	292	4	stim04_sf1_pattern2_cont1_shape1.png	1	120	0	386.144585329977	386.244581605744	0.0999962757668982	stim04_sf1_pattern2_cont1_shape1.png	1	2	1	1	1	1	0	0	0	0	0	0	0	0	0	0	0	0	1	26
210.2490234375	0.100013870574912	430590	293	6	stim06_sf1_pattern2_cont2_shape1.png	1	121	0	386.64456084387	386.744574714445	0.100013870574912	stim06_sf1_pattern2_cont2_shape1.png	1	2	2	1	1	2	0	0	0	0	0	0	0	0	0	0	0	0	1	26
210.7490234375	0.099977801215573	431614	294	12	stim12_sf2_pattern2_cont1_shape1.png	1	122	0	387.144569494652	387.244547295868	0.099977801215573	stim12_sf2_pattern2_cont1_shape1.png	2	2	1	1	1	3	0	0	0	0	0	0	0	0	0	0	0	0	1	26
211.2490234375	0.100016509793932	432638	295	14	stim14_sf2_pattern2_cont2_shape1.png	1	123	0	387.644535038155	387.744551547949	0.100016509793932	stim14_sf2_pattern2_cont2_shape1.png	2	2	2	1	1	4	0	0	0	0	0	0	0	0	0	0	0	0	1	26
211.7490234375	0.100012111091928	433662	296	0	stim00_sf1_pattern1_cont1_shape1.png	1	124	0	388.144548967375	388.244561078467	0.100012111091928	stim00_sf1_pattern1_cont1_shape1.png	1	1	1	1	1	1	0	0	0	0	0	0	0	0	0	0	0	0	1	26
212.2490234375	0.100020615249377	434686	297	8	stim08_sf2_pattern1_cont1_shape1.png	1	125	0	388.644496622823	388.744517238072	0.100020615249377	stim08_sf2_pattern1_cont1_shape1.png	2	1	1	1	1	3	0	0	0	0	0	0	0	0	0	0	0	0	1	26
212.7490234375	0.0999540482298471	435710	298	13	stim13_sf2_pattern2_cont1_shape2.png	1	126	0	389.144539876725	389.244493924954	0.0999540482298471	stim13_sf2_pattern2_cont1_shape2.png	2	2	1	2	1	3	0	0	0	0	0	0	0	0	0	0	0	0	1	26
213.2490234375	0.10000214070169	436734	299	15	stim15_sf2_pattern2_cont2_shape2.png	1	127	0	389.644474629316	389.744476770018	0.10000214070169	stim15_sf2_pattern2_cont2_shape2.png	2	2	2	2	1	4	0	0	0	0	0	0	0	0	0	0	0	0	1	26
213.7490234375	0.0999854256369872	437758	300	8	stim08_sf2_pattern1_cont1_shape1.png	1	128	0	390.144512604773	390.24449803041	0.0999854256369872	stim08_sf2_pattern1_cont1_shape1.png	2	1	1	1	1	3	0	0	0	0	0	0	0	0	0	0	0	0	1	26
214.2490234375	0.0999997947292286	438782	301	13	stim13_sf2_pattern2_cont1_shape2.png	1	129	0	390.644481373991	390.74448116872	0.0999997947292286	stim13_sf2_pattern2_cont1_shape2.png	2	2	1	2	1	3	0	0	0	0	0	0	0	0	0	0	0	0	1	26
214.7490234375	0.0999995014790329	439806	302	4	stim04_sf1_pattern2_cont1_shape1.png	1	130	0	391.144487092304	391.244486593783	0.0999995014790329	stim04_sf1_pattern2_cont1_shape1.png	1	2	1	1	1	1	0	0	0	0	0	0	0	0	0	0	0	0	1	26
215.2490234375	0.0999956892737828	440830	303	15	stim15_sf2_pattern2_cont2_shape2.png	1	131	0	391.644485772693	391.744481461967	0.0999956892737828	stim15_sf2_pattern2_cont2_shape2.png	2	2	2	2	1	4	0	0	0	0	0	0	0	0	0	0	0	0	1	26
215.7490234375	0.0999921703114524	441854	304	9	stim09_sf2_pattern1_cont1_shape2.png	1	132	0	392.144480934119	392.244473104431	0.0999921703114524	stim09_sf2_pattern1_cont1_shape2.png	2	1	1	2	1	3	0	0	0	0	0	0	0	0	0	0	0	0	1	26
216.2490234375	0.0999863053766603	442878	305	0	stim00_sf1_pattern1_cont1_shape1.png	1	133	0	392.644468471131	392.744454776508	0.0999863053766603	stim00_sf1_pattern1_cont1_shape1.png	1	1	1	1	1	1	0	0	0	0	0	0	0	0	0	0	0	0	1	26
216.7490234375	0.10002384096515	443902	306	14	stim14_sf2_pattern2_cont2_shape1.png	1	134	0	393.144456887883	393.244480728848	0.10002384096515	stim14_sf2_pattern2_cont2_shape1.png	2	2	2	1	1	4	0	0	0	0	0	0	0	0	0	0	0	0	1	26
217.2490234375	0.100010938105697	444926	307	5	stim05_sf1_pattern2_cont1_shape2.png	1	135	0	393.644442078919	393.744453017025	0.100010938105697	stim05_sf1_pattern2_cont1_shape2.png	1	2	1	2	1	1	0	0	0	0	0	0	0	0	0	0	0	0	1	26
217.7490234375	0.0999980352462444	445950	308	3	stim03_sf1_pattern1_cont2_shape2.png	1	136	0	394.144463632561	394.244461667808	0.0999980352462444	stim03_sf1_pattern1_cont2_shape2.png	1	1	2	2	1	2	0	0	0	0	0	0	0	0	0	0	0	0	1	26
218.2490234375	0.100015923300816	446974	309	10	stim10_sf2_pattern1_cont2_shape1.png	1	137	0	394.6444394397	394.744455363001	0.100015923300816	stim10_sf2_pattern1_cont2_shape1.png	2	1	2	1	1	4	0	0	0	0	0	0	0	0	0	0	0	0	1	26
218.7490234375	0.0999854256369872	447998	310	8	stim08_sf2_pattern1_cont1_shape1.png	1	138	1	395.144462459572	395.244447885209	0.0999854256369872	stim08_sf2_pattern1_cont1_shape1.png	2	1	1	1	1	3	0	0	0	0	0	0	0	0	0	0	0	0	1	26
219.2490234375	0.10002032200282	449022	311	8	stim08_sf2_pattern1_cont1_shape1.png	1	139	1	395.644424484115	395.744444806118	0.10002032200282	stim08_sf2_pattern1_cont1_shape1.png	2	1	1	1	1	3	0	0	0	0	0	0	0	0	0	0	0	0	1	26
219.7490234375	0.0999962757632602	450046	312	1	stim01_sf1_pattern1_cont1_shape2.png	1	140	2	396.144436067363	396.244432343126	0.0999962757632602	stim01_sf1_pattern1_cont1_shape2.png	1	1	1	2	1	1	0	0	0	0	0	0	0	0	0	0	0	0	1	26
220.2490234375	0.100002727194806	451070	313	4	stim04_sf1_pattern2_cont1_shape1.png	1	141	2	396.644422724632	396.744425451827	0.100002727194806	stim04_sf1_pattern2_cont1_shape1.png	1	2	1	1	1	1	0	0	0	0	0	0	0	0	0	0	0	0	1	26
220.74853515625	0.0999956892701448	452093	314	7	stim07_sf1_pattern2_cont2_shape2.png	1	142	0	397.144422578011	397.244418267281	0.0999956892701448	stim07_sf1_pattern2_cont2_shape2.png	1	2	2	2	1	2	0	0	0	0	0	0	0	0	0	0	0	0	1	26
221.24853515625	0.1000176827838	453117	315	1	stim01_sf1_pattern1_cont1_shape2.png	1	143	0	397.644377271379	397.744394954163	0.1000176827838	stim01_sf1_pattern1_cont1_shape2.png	1	1	1	2	1	1	0	0	0	0	0	0	0	0	0	0	0	0	1	26
221.74853515625	0.0999763349827845	454141	316	11	stim11_sf2_pattern1_cont2_shape2.png	1	144	0	398.144404103463	398.244380438446	0.0999763349827845	stim11_sf2_pattern1_cont2_shape2.png	2	1	2	2	1	4	0	0	0	0	0	0	0	0	0	0	0	0	1	26
222.24853515625	0.0999921703114524	455165	317	12	stim12_sf2_pattern2_cont1_shape1.png	1	145	0	398.644388414759	398.744380585071	0.0999921703114524	stim12_sf2_pattern2_cont1_shape1.png	2	2	1	1	1	3	0	0	0	0	0	0	0	0	0	0	0	0	1	26
222.74853515625	0.0999962757668982	456189	318	6	stim06_sf1_pattern2_cont2_shape1.png	1	146	0	399.144391200603	399.24438747637	0.0999962757668982	stim06_sf1_pattern2_cont2_shape1.png	1	2	2	1	1	2	0	0	0	0	0	0	0	0	0	0	0	0	1	26
223.24853515625	0.100039383043622	457213	319	2	stim02_sf1_pattern1_cont2_shape1.png	1	147	0	399.644326246438	399.744365629482	0.100039383043622	stim02_sf1_pattern1_cont2_shape1.png	1	1	2	1	1	2	0	0	0	0	0	0	0	0	0	0	0	0	1	26
223.74853515625	0.0999956892701448	458237	320	5	stim05_sf1_pattern2_cont1_shape2.png	1	148	0	400.144376831511	400.244372520781	0.0999956892701448	stim05_sf1_pattern2_cont1_shape2.png	1	2	1	2	1	1	0	0	0	0	0	0	0	0	0	0	0	0	1	26
224.24853515625	0.0998288318478444	459261	321	11	stim11_sf2_pattern1_cont2_shape2.png	1	149	0	400.644522428542	400.74435126039	0.0998288318478444	stim11_sf2_pattern1_cont2_shape2.png	2	1	2	2	1	4	0	0	0	0	0	0	0	0	0	0	0	0	1	26
224.74853515625	0.0999986217429978	460285	322	4	stim04_sf1_pattern2_cont1_shape1.png	1	150	0	401.144361289429	401.244359911172	0.0999986217429978	stim04_sf1_pattern2_cont1_shape1.png	1	2	1	1	1	1	0	0	0	0	0	0	0	0	0	0	0	0	1	26
225.24853515625	0.0999995014790329	461309	323	7	stim07_sf1_pattern2_cont2_shape2.png	1	151	0	401.644337683065	401.744337184544	0.0999995014790329	stim07_sf1_pattern2_cont2_shape2.png	1	2	2	2	1	2	0	0	0	0	0	0	0	0	0	0	0	0	1	26
225.74853515625	0.0999989149895555	462333	324	12	stim12_sf2_pattern2_cont1_shape1.png	1	152	0	402.144347800077	402.244346715066	0.0999989149895555	stim12_sf2_pattern2_cont1_shape1.png	2	2	1	1	1	3	0	0	0	0	0	0	0	0	0	0	0	0	1	26
226.24853515625	0.100008885379793	463357	325	14	stim14_sf2_pattern2_cont2_shape1.png	1	153	0	402.64430865163	402.74431753701	0.100008885379793	stim14_sf2_pattern2_cont2_shape1.png	2	2	2	1	1	4	0	0	0	0	0	0	0	0	0	0	0	0	1	26
226.74853515625	0.100003020441363	464381	326	1	stim01_sf1_pattern1_cont1_shape2.png	1	154	0	403.144323460594	403.244326481035	0.100003020441363	stim01_sf1_pattern1_cont1_shape2.png	1	1	1	2	1	1	0	0	0	0	0	0	0	0	0	0	0	0	1	26
227.24853515625	0.100010351612582	465405	327	6	stim06_sf1_pattern2_cont2_shape1.png	1	155	0	403.644270236302	403.744280587915	0.100010351612582	stim06_sf1_pattern2_cont2_shape1.png	1	2	2	1	1	2	0	0	0	0	0	0	0	0	0	0	0	0	1	26
227.74853515625	0.0999939297907986	466429	328	9	stim09_sf2_pattern1_cont1_shape2.png	1	156	0	404.144276541108	404.244270470899	0.0999939297907986	stim09_sf2_pattern1_cont1_shape2.png	2	1	1	2	1	3	0	0	0	0	0	0	0	0	0	0	0	0	1	26
228.24853515625	0.100031172136369	467453	329	3	stim03_sf1_pattern1_cont2_shape2.png	1	157	0	404.644248242792	404.744279414928	0.100031172136369	stim03_sf1_pattern1_cont2_shape2.png	1	1	2	2	1	2	0	0	0	0	0	0	0	0	0	0	0	0	1	26
228.74853515625	0.100003900181036	468477	330	2	stim02_sf1_pattern1_cont2_shape1.png	1	158	0	405.14427096942	405.244274869601	0.100003900181036	stim02_sf1_pattern1_cont2_shape1.png	1	1	2	1	1	2	0	0	0	0	0	0	0	0	0	0	0	0	1	26
229.24853515625	0.100019442259509	469501	331	0	stim00_sf1_pattern1_cont1_shape1.png	1	159	0	405.644236806169	405.744256248428	0.100019442259509	stim00_sf1_pattern1_cont1_shape1.png	1	1	1	1	1	1	0	0	0	0	0	0	0	0	0	0	0	0	1	26
229.74853515625	0.100016803040489	470525	332	13	stim13_sf2_pattern2_cont1_shape2.png	1	160	0	406.144244577208	406.244261380249	0.100016803040489	stim13_sf2_pattern2_cont1_shape2.png	2	2	1	2	1	3	0	0	0	0	0	0	0	0	0	0	0	0	1	26
230.24853515625	0.0999924635580101	471549	333	10	stim10_sf2_pattern1_cont2_shape1.png	1	161	0	406.64425586721	406.744248330768	0.0999924635580101	stim10_sf2_pattern1_cont2_shape1.png	2	1	2	1	1	4	0	0	0	0	0	0	0	0	0	0	0	0	1	26
230.74853515625	0.100015630054259	472573	334	8	stim08_sf2_pattern1_cont1_shape1.png	1	162	0	407.144254547598	407.244270177653	0.100015630054259	stim08_sf2_pattern1_cont1_shape1.png	2	1	1	1	1	3	0	0	0	0	0	0	0	0	0	0	0	0	1	26
231.24853515625	0.100026480184169	473597	335	15	stim15_sf2_pattern2_cont2_shape2.png	1	163	0	407.644209827464	407.744236307648	0.100026480184169	stim15_sf2_pattern2_cont2_shape2.png	2	2	2	2	1	4	0	0	0	0	0	0	0	0	0	0	0	0	1	26
254.88134765625	0.0999874783628911	521997	336	11	stim11_sf2_pattern1_cont2_shape2.png	2	0	0	431.277259855073	431.377247333436	0.0999874783628911	stim11_sf2_pattern1_cont2_shape2.png	2	1	2	2	1	4	0	0	0	0	0	0	0	0	0	0	0	0	1	26
255.38134765625	0.100016509793932	523021	337	3	stim03_sf1_pattern1_cont2_shape2.png	2	1	0	431.777224812082	431.877241321876	0.100016509793932	stim03_sf1_pattern1_cont2_shape2.png	1	1	2	2	1	2	0	0	0	0	0	0	0	0	0	0	0	0	1	26
255.88134765625	0.0999924635580101	524045	338	2	stim02_sf1_pattern1_cont2_shape1.png	2	2	0	432.277239327796	432.377231791354	0.0999924635580101	stim02_sf1_pattern1_cont2_shape1.png	1	1	2	1	1	2	0	0	0	0	0	0	0	0	0	0	0	0	1	26
256.38134765625	0.0999842526507564	525069	339	9	stim09_sf2_pattern1_cont1_shape2.png	2	3	0	432.777228037794	432.877212290445	0.0999842526507564	stim09_sf2_pattern1_cont1_shape2.png	2	1	1	2	1	3	0	0	0	0	0	0	0	0	0	0	0	0	1	26
256.880859375	0.0999918770648947	526092	340	10	stim10_sf2_pattern1_cont2_shape1.png	2	4	0	433.277224665457	433.377216542522	0.0999918770648947	stim10_sf2_pattern1_cont2_shape1.png	2	1	2	1	1	4	0	0	0	0	0	0	0	0	0	0	0	0	1	26
257.380859375	0.0999901175819105	527116	341	0	stim00_sf1_pattern1_cont1_shape1.png	2	5	0	433.777211322729	433.877201440311	0.0999901175819105	stim00_sf1_pattern1_cont1_shape1.png	1	1	1	1	1	1	0	0	0	0	0	0	0	0	0	0	0	0	1	26
257.880859375	0.100020908495935	528140	342	8	stim08_sf2_pattern1_cont1_shape1.png	2	6	0	434.277181264933	434.377202173429	0.100020908495935	stim08_sf2_pattern1_cont1_shape1.png	2	1	1	1	1	3	0	0	0	0	0	0	0	0	0	0	0	0	1	26
258.380859375	0.0999912905681413	529164	343	5	stim05_sf1_pattern2_cont1_shape2.png	2	7	0	434.777197833377	434.877189123945	0.0999912905681413	stim05_sf1_pattern2_cont1_shape2.png	1	2	1	2	1	1	0	0	0	0	0	0	0	0	0	0	0	0	1	26
258.880859375	0.100006832650251	530188	344	12	stim12_sf2_pattern2_cont1_shape1.png	2	8	0	435.27718067844	435.377187511091	0.100006832650251	stim12_sf2_pattern2_cont1_shape1.png	2	2	1	1	1	3	0	0	0	0	0	0	0	0	0	0	0	0	1	26
259.380859375	0.100005659664021	531212	345	4	stim04_sf1_pattern2_cont1_shape1.png	2	9	0	435.777165282983	435.877170942647	0.100005659664021	stim04_sf1_pattern2_cont1_shape1.png	1	2	1	1	1	1	0	0	0	0	0	0	0	0	0	0	0	0	1	26
259.880859375	0.0999983284964401	532236	346	1	stim01_sf1_pattern1_cont1_shape2.png	2	10	0	436.277175399995	436.377173728491	0.0999983284964401	stim01_sf1_pattern1_cont1_shape2.png	1	1	1	2	1	1	0	0	0	0	0	0	0	0	0	0	0	0	1	26
260.380859375	0.100017389537243	533260	347	13	stim13_sf2_pattern2_cont1_shape2.png	2	11	0	436.777149740901	436.877167130438	0.100017389537243	stim13_sf2_pattern2_cont1_shape2.png	2	2	1	2	1	3	0	0	0	0	0	0	0	0	0	0	0	0	1	26
260.880859375	0.0999953960235871	534284	348	7	stim07_sf1_pattern2_cont2_shape2.png	2	12	0	437.277163376879	437.377158772902	0.0999953960235871	stim07_sf1_pattern2_cont2_shape2.png	1	2	2	2	1	2	0	0	0	0	0	0	0	0	0	0	0	0	1	26
261.380859375	0.09998659861958	535308	349	6	stim06_sf1_pattern2_cont2_shape1.png	2	13	0	437.77715560584	437.877142204459	0.09998659861958	stim06_sf1_pattern2_cont2_shape1.png	1	2	2	1	1	2	0	0	0	0	0	0	0	0	0	0	0	0	1	26
261.880859375	0.0999980352462444	536332	350	15	stim15_sf2_pattern2_cont2_shape2.png	2	14	0	438.277149887526	438.377147922773	0.0999980352462444	stim15_sf2_pattern2_cont2_shape2.png	2	2	2	2	1	4	0	0	0	0	0	0	0	0	0	0	0	0	1	26
262.380859375	0.0999745755034382	537356	351	14	stim14_sf2_pattern2_cont2_shape1.png	2	15	0	438.777162937007	438.877137512511	0.0999745755034382	stim14_sf2_pattern2_cont2_shape1.png	2	2	2	1	1	4	0	0	0	0	0	0	0	0	0	0	0	0	1	26
262.880859375	0.0999786809588841	538380	352	5	stim05_sf1_pattern2_cont1_shape2.png	2	16	0	439.277140503629	439.377119184588	0.0999786809588841	stim05_sf1_pattern2_cont1_shape2.png	1	2	1	2	1	1	0	0	0	0	0	0	0	0	0	0	0	0	1	26
263.380859375	0.10001181784537	539404	353	11	stim11_sf2_pattern1_cont2_shape2.png	2	17	0	439.777110445833	439.877122263679	0.10001181784537	stim11_sf2_pattern1_cont2_shape2.png	2	1	2	2	1	4	0	0	0	0	0	0	0	0	0	0	0	0	1	26
263.880859375	0.0999742822568805	540428	354	2	stim02_sf1_pattern1_cont2_shape1.png	2	18	0	440.277127307523	440.37710158978	0.0999742822568805	stim02_sf1_pattern1_cont2_shape1.png	1	1	2	1	1	2	0	0	0	0	0	0	0	0	0	0	0	0	1	26
264.380859375	0.0999904108321061	541452	355	0	stim00_sf1_pattern1_cont1_shape1.png	2	19	0	440.777102821416	440.877093232248	0.0999904108321061	stim00_sf1_pattern1_cont1_shape1.png	1	1	1	1	1	1	0	0	0	0	0	0	0	0	0	0	0	0	1	26
264.880859375	0.0999566874488664	542476	356	10	stim10_sf2_pattern1_cont2_shape1.png	2	20	1	441.277099449078	441.377056136527	0.0999566874488664	stim10_sf2_pattern1_cont2_shape1.png	2	1	2	1	1	4	0	0	0	0	0	0	0	0	0	0	0	0	1	26
265.380859375	0.0999995014826709	543500	357	10	stim10_sf2_pattern1_cont2_shape1.png	2	21	1	441.77706675206	441.877066253543	0.0999995014826709	stim10_sf2_pattern1_cont2_shape1.png	2	1	2	1	1	4	0	0	0	0	0	0	0	0	0	0	0	0	1	26
265.880859375	0.0999971555029333	544524	358	4	stim04_sf1_pattern2_cont1_shape1.png	2	22	2	442.277065725699	442.377062881202	0.0999971555029333	stim04_sf1_pattern2_cont1_shape1.png	1	2	1	1	1	1	0	0	0	0	0	0	0	0	0	0	0	0	1	26
266.380859375	0.100022667975281	545548	359	5	stim05_sf1_pattern2_cont1_shape2.png	2	23	2	442.777051796475	442.87707446445	0.100022667975281	stim05_sf1_pattern2_cont1_shape2.png	1	2	1	2	1	1	0	0	0	0	0	0	0	0	0	0	0	0	1	26
266.880859375	0.0999983284928021	546572	360	14	stim14_sf2_pattern2_cont2_shape1.png	2	24	0	443.277077162322	443.377075490815	0.0999983284928021	stim14_sf2_pattern2_cont2_shape1.png	2	2	2	1	1	4	0	0	0	0	0	0	0	0	0	0	0	0	1	26
267.380859375	0.0999757484896691	547596	361	8	stim08_sf2_pattern1_cont1_shape1.png	2	25	0	443.777037134136	443.877012882625	0.0999757484896691	stim08_sf2_pattern1_cont1_shape1.png	2	1	1	1	1	3	0	0	0	0	0	0	0	0	0	0	0	0	1	26
267.880859375	0.0999927568045678	548620	362	12	stim12_sf2_pattern2_cont1_shape1.png	2	26	0	444.277044905175	444.37703766198	0.0999927568045678	stim12_sf2_pattern2_cont1_shape1.png	2	2	1	1	1	3	0	0	0	0	0	0	0	0	0	0	0	0	1	26
268.380859375	0.0999951027806674	549644	363	15	stim15_sf2_pattern2_cont2_shape2.png	2	27	0	444.777047691019	444.8770427938	0.0999951027806674	stim15_sf2_pattern2_cont2_shape2.png	2	2	2	2	1	4	0	0	0	0	0	0	0	0	0	0	0	0	1	26
268.880859375	0.100000087972148	550668	364	3	stim03_sf1_pattern1_cont2_shape2.png	2	28	0	445.277053409332	445.377053497305	0.100000087972148	stim03_sf1_pattern1_cont2_shape2.png	1	1	2	2	1	2	0	0	0	0	0	0	0	0	0	0	0	0	1	26
269.380859375	0.0999848391402338	551692	365	7	stim07_sf1_pattern2_cont2_shape2.png	2	29	0	445.777042999071	445.877027838211	0.0999848391402338	stim07_sf1_pattern2_cont2_shape2.png	1	2	2	2	1	2	0	0	0	0	0	0	0	0	0	0	0	0	1	26
269.880859375	0.0999948095341097	552716	366	9	stim09_sf2_pattern1_cont1_shape2.png	2	30	0	446.277032002316	446.37702681185	0.0999948095341097	stim09_sf2_pattern1_cont1_shape2.png	2	1	1	2	1	3	0	0	0	0	0	0	0	0	0	0	0	0	1	26
270.380859375	0.0999839594005607	553740	367	1	stim01_sf1_pattern1_cont1_shape2.png	2	31	0	446.777035667903	446.877019627304	0.0999839594005607	stim01_sf1_pattern1_cont1_shape2.png	1	1	1	2	1	1	0	0	0	0	0	0	0	0	0	0	0	0	1	26
270.880859375	0.100003020441363	554764	368	10	stim10_sf2_pattern1_cont2_shape1.png	2	32	0	447.277009422312	447.377012442754	0.100003020441363	stim10_sf2_pattern1_cont2_shape1.png	2	1	2	1	1	4	0	0	0	0	0	0	0	0	0	0	0	0	1	26
271.380859375	0.100013284078159	555788	369	6	stim06_sf1_pattern2_cont2_shape1.png	2	33	0	447.776991387636	447.877004671715	0.100013284078159	stim06_sf1_pattern2_cont2_shape1.png	1	2	2	1	1	2	0	0	0	0	0	0	0	0	0	0	0	0	1	26
271.880859375	0.0999977419996867	556812	370	13	stim13_sf2_pattern2_cont1_shape2.png	2	34	0	448.277000331662	448.376998073662	0.0999977419996867	stim13_sf2_pattern2_cont1_shape2.png	2	2	1	2	1	3	0	0	0	0	0	0	0	0	0	0	0	0	1	26
272.380859375	0.0999983284928021	557836	371	4	stim04_sf1_pattern2_cont1_shape1.png	2	35	0	448.776993440362	448.876991768855	0.0999983284928021	stim04_sf1_pattern2_cont1_shape1.png	1	2	1	1	1	1	0	0	0	0	0	0	0	0	0	0	0	0	1	26
272.880859375	0.0999995014790329	558860	372	15	stim15_sf2_pattern2_cont2_shape2.png	2	36	0	449.276987722053	449.376987223532	0.0999995014790329	stim15_sf2_pattern2_cont2_shape2.png	2	2	2	2	1	4	0	0	0	0	0	0	0	0	0	0	0	0	1	26
273.380859375	0.100006246157136	559884	373	12	stim12_sf2_pattern2_cont1_shape1.png	2	37	0	449.776961183215	449.876967429373	0.100006246157136	stim12_sf2_pattern2_cont1_shape1.png	2	2	1	1	1	3	0	0	0	0	0	0	0	0	0	0	0	0	1	26
273.880859375	0.100022081482166	560908	374	9	stim09_sf2_pattern1_cont1_shape2.png	2	38	0	450.276947547241	450.376969628724	0.100022081482166	stim09_sf2_pattern1_cont1_shape2.png	2	1	1	2	1	3	0	0	0	0	0	0	0	0	0	0	0	0	1	26
274.38037109375	0.099983666154003	561931	375	11	stim11_sf2_pattern1_cont2_shape2.png	2	39	0	450.776963822438	450.876947488592	0.099983666154003	stim11_sf2_pattern1_cont2_shape2.png	2	1	2	2	1	4	0	0	0	0	0	0	0	0	0	0	0	0	1	26
274.88037109375	0.100002433948248	562955	376	8	stim08_sf2_pattern1_cont1_shape1.png	2	40	0	451.276952532437	451.376954966385	0.100002433948248	stim08_sf2_pattern1_cont1_shape1.png	2	1	1	1	1	3	0	0	0	0	0	0	0	0	0	0	0	0	1	26
275.38037109375	0.100019149016589	563979	377	10	stim10_sf2_pattern1_cont2_shape1.png	2	41	0	451.776929805808	451.876948954825	0.100019149016589	stim10_sf2_pattern1_cont2_shape1.png	2	1	2	1	1	4	0	0	0	0	0	0	0	0	0	0	0	0	1	26
275.88037109375	0.0999980352462444	565003	378	6	stim06_sf1_pattern2_cont2_shape1.png	2	42	0	452.276927899708	452.376925934954	0.0999980352462444	stim06_sf1_pattern2_cont2_shape1.png	1	2	2	1	1	2	0	0	0	0	0	0	0	0	0	0	0	0	1	26
276.38037109375	0.100005366417463	566027	379	2	stim02_sf1_pattern1_cont2_shape1.png	2	43	0	452.776918075939	452.876923442356	0.100005366417463	stim02_sf1_pattern1_cont2_shape1.png	1	1	2	1	1	2	0	0	0	0	0	0	0	0	0	0	0	0	1	26
276.88037109375	0.0999980352462444	567051	380	1	stim01_sf1_pattern1_cont1_shape2.png	2	44	0	453.276927313211	453.376925348457	0.0999980352462444	stim01_sf1_pattern1_cont1_shape2.png	1	1	1	2	1	1	0	0	0	0	0	0	0	0	0	0	0	0	1	26
277.38037109375	0.10000477992071	568075	381	7	stim07_sf1_pattern2_cont2_shape2.png	2	45	0	453.776903706846	453.876908486767	0.10000477992071	stim07_sf1_pattern2_cont2_shape2.png	1	2	2	2	1	2	0	0	0	0	0	0	0	0	0	0	0	0	1	26
277.88037109375	0.099980733684788	569099	382	0	stim00_sf1_pattern1_cont1_shape1.png	2	46	0	454.276898575026	454.376879308711	0.099980733684788	stim00_sf1_pattern1_cont1_shape1.png	1	1	1	1	1	1	0	0	0	0	0	0	0	0	0	0	0	0	1	26
278.38037109375	0.100009471872909	570123	383	4	stim04_sf1_pattern2_cont1_shape1.png	2	47	0	454.776879074114	454.876888545987	0.100009471872909	stim04_sf1_pattern2_cont1_shape1.png	1	2	1	1	1	1	0	0	0	0	0	0	0	0	0	0	0	0	1	26
278.88037109375	0.0999578604350972	571147	384	13	stim13_sf2_pattern2_cont1_shape2.png	2	48	0	455.276893003338	455.376850863773	0.0999578604350972	stim13_sf2_pattern2_cont1_shape2.png	2	2	1	2	1	3	0	0	0	0	0	0	0	0	0	0	0	0	1	26
279.38037109375	0.100000381222344	572171	385	14	stim14_sf2_pattern2_cont2_shape1.png	2	49	0	455.776868810477	455.876869191699	0.100000381222344	stim14_sf2_pattern2_cont2_shape1.png	2	2	2	1	1	4	0	0	0	0	0	0	0	0	0	0	0	0	1	26
279.88037109375	0.099997448753129	573195	386	3	stim03_sf1_pattern1_cont2_shape2.png	2	50	0	456.276860159698	456.376857608451	0.099997448753129	stim03_sf1_pattern1_cont2_shape2.png	1	1	2	2	1	2	0	0	0	0	0	0	0	0	0	0	0	0	1	26
280.38037109375	0.100002433948248	574219	387	5	stim05_sf1_pattern2_cont1_shape2.png	2	51	0	456.776840365539	456.876842799487	0.100002433948248	stim05_sf1_pattern2_cont1_shape2.png	1	2	1	2	1	1	0	0	0	0	0	0	0	0	0	0	0	0	1	26
280.88037109375	0.0999461305618752	575243	388	3	stim03_sf1_pattern1_cont2_shape2.png	2	52	0	457.276832301253	457.376778431815	0.0999461305618752	stim03_sf1_pattern1_cont2_shape2.png	1	1	2	2	1	2	0	0	0	0	0	0	0	0	0	0	0	0	1	26
281.38037109375	0.100006832650251	576267	389	2	stim02_sf1_pattern1_cont2_shape1.png	2	53	0	457.776826876187	457.876833708837	0.100006832650251	stim02_sf1_pattern1_cont2_shape1.png	1	1	2	1	1	2	0	0	0	0	0	0	0	0	0	0	0	0	1	26
281.88037109375	0.100001554208575	577291	390	15	stim15_sf2_pattern2_cont2_shape2.png	2	54	0	458.276836113459	458.376837667667	0.100001554208575	stim15_sf2_pattern2_cont2_shape2.png	2	2	2	2	1	4	0	0	0	0	0	0	0	0	0	0	0	0	1	26
282.38037109375	0.0999962757632602	578315	391	14	stim14_sf2_pattern2_cont2_shape1.png	2	55	0	458.776821304498	458.876817580262	0.0999962757632602	stim14_sf2_pattern2_cont2_shape1.png	2	2	2	1	1	4	0	0	0	0	0	0	0	0	0	0	0	0	1	26
282.88037109375	0.0999980352462444	579339	392	1	stim01_sf1_pattern1_cont1_shape2.png	2	56	0	459.27682057138	459.376818606626	0.0999980352462444	stim01_sf1_pattern1_cont1_shape2.png	1	1	1	2	1	1	0	0	0	0	0	0	0	0	0	0	0	0	1	26
283.38037109375	0.0999968622600136	580363	393	0	stim00_sf1_pattern1_cont1_shape1.png	2	57	0	459.776800483975	459.876797346235	0.0999968622600136	stim00_sf1_pattern1_cont1_shape1.png	1	1	1	1	1	1	0	0	0	0	0	0	0	0	0	0	0	0	1	26
283.88037109375	0.100004779924348	581387	394	12	stim12_sf2_pattern2_cont1_shape1.png	2	58	0	460.276822037613	460.376826817537	0.100004779924348	stim12_sf2_pattern2_cont1_shape1.png	2	2	1	1	1	3	0	0	0	0	0	0	0	0	0	0	0	0	1	26
284.38037109375	0.10000829888304	582411	395	11	stim11_sf2_pattern1_cont2_shape2.png	2	59	0	460.776797844755	460.876806143639	0.10000829888304	stim11_sf2_pattern1_cont2_shape2.png	2	1	2	2	1	4	0	0	0	0	0	0	0	0	0	0	0	0	1	26
284.88037109375	0.0999939297907986	583435	396	7	stim07_sf1_pattern2_cont2_shape2.png	2	60	0	461.276814119952	461.376808049743	0.0999939297907986	stim07_sf1_pattern2_cont2_shape2.png	1	2	2	2	1	2	0	0	0	0	0	0	0	0	0	0	0	0	1	26
285.38037109375	0.100012990835239	584459	397	4	stim04_sf1_pattern2_cont1_shape1.png	2	61	0	461.776786701375	461.876799692211	0.100012990835239	stim04_sf1_pattern2_cont1_shape1.png	1	2	1	1	1	1	0	0	0	0	0	0	0	0	0	0	0	0	1	26
285.88037109375	0.0999965690134559	585483	398	10	stim10_sf2_pattern1_cont2_shape1.png	2	62	0	462.276794765661	462.376791334675	0.0999965690134559	stim10_sf2_pattern1_cont2_shape1.png	2	1	2	1	1	4	0	0	0	0	0	0	0	0	0	0	0	0	1	26
286.38037109375	0.100006539403694	586507	399	9	stim09_sf2_pattern1_cont1_shape2.png	2	63	0	462.77677174579	462.876778285194	0.100006539403694	stim09_sf2_pattern1_cont1_shape2.png	2	1	1	2	1	3	0	0	0	0	0	0	0	0	0	0	0	0	1	26
286.88037109375	0.100020615249377	587531	400	13	stim13_sf2_pattern2_cont1_shape2.png	2	64	0	463.276757523319	463.376778138569	0.100020615249377	stim13_sf2_pattern2_cont1_shape2.png	2	2	1	2	1	3	0	0	0	0	0	0	0	0	0	0	0	0	1	26
287.38037109375	0.100009178622713	588555	401	6	stim06_sf1_pattern2_cont2_shape1.png	2	65	0	463.776756203712	463.876765382334	0.100009178622713	stim06_sf1_pattern2_cont2_shape1.png	1	2	2	1	1	2	0	0	0	0	0	0	0	0	0	0	0	0	1	26
287.88037109375	0.100001847455133	589579	402	8	stim08_sf2_pattern1_cont1_shape1.png	2	66	0	464.276748139422	464.376749986877	0.100001847455133	stim08_sf2_pattern1_cont1_shape1.png	2	1	1	1	1	3	0	0	0	0	0	0	0	0	0	0	0	0	1	26
288.38037109375	0.100003900181036	590603	403	5	stim05_sf1_pattern2_cont1_shape2.png	2	67	0	464.77673978189	464.876743682071	0.100003900181036	stim05_sf1_pattern2_cont1_shape2.png	1	2	1	2	1	1	0	0	0	0	0	0	0	0	0	0	0	0	1	26
288.88037109375	0.0999986217393598	591627	404	2	stim02_sf1_pattern1_cont2_shape1.png	2	68	0	465.276751951631	465.37675057337	0.0999986217393598	stim02_sf1_pattern1_cont2_shape1.png	1	1	2	1	1	2	0	0	0	0	0	0	0	0	0	0	0	0	1	26
289.38037109375	0.100003313691559	592651	405	4	stim04_sf1_pattern2_cont1_shape1.png	2	69	0	465.776727465523	465.876730779215	0.100003313691559	stim04_sf1_pattern2_cont1_shape1.png	1	2	1	1	1	1	0	0	0	0	0	0	0	0	0	0	0	0	1	26
289.88037109375	0.100000087972148	593675	406	5	stim05_sf1_pattern2_cont1_shape2.png	2	70	0	466.276712363317	466.376712451289	0.100000087972148	stim05_sf1_pattern2_cont1_shape2.png	1	2	1	2	1	1	0	0	0	0	0	0	0	0	0	0	0	0	1	26
290.38037109375	0.100019735509704	594699	407	11	stim11_sf2_pattern1_cont2_shape2.png	2	71	0	466.776700486818	466.876720222328	0.100019735509704	stim11_sf2_pattern1_cont2_shape2.png	2	1	2	2	1	4	0	0	0	0	0	0	0	0	0	0	0	0	1	26
290.88037109375	0.0999962757632602	595723	408	14	stim14_sf2_pattern2_cont2_shape1.png	2	72	0	467.276721747214	467.376718022977	0.0999962757632602	stim14_sf2_pattern2_cont2_shape1.png	2	2	2	1	1	4	0	0	0	0	0	0	0	0	0	0	0	0	1	26
291.38037109375	0.100001847455133	596747	409	10	stim10_sf2_pattern1_cont2_shape1.png	2	73	0	467.776708990976	467.876710838431	0.100001847455133	stim10_sf2_pattern1_cont2_shape1.png	2	1	2	1	1	4	0	0	0	0	0	0	0	0	0	0	0	0	1	26
291.8798828125	0.0999965690134559	597770	410	15	stim15_sf2_pattern2_cont2_shape2.png	2	74	0	468.276707671364	468.376704240378	0.0999965690134559	stim15_sf2_pattern2_cont2_shape2.png	2	2	2	2	1	4	0	0	0	0	0	0	0	0	0	0	0	0	1	26
292.3798828125	0.10001064485914	598794	411	7	stim07_sf1_pattern2_cont2_shape2.png	2	75	0	468.776684065	468.876694709859	0.10001064485914	stim07_sf1_pattern2_cont2_shape2.png	1	2	2	2	1	2	0	0	0	0	0	0	0	0	0	0	0	0	1	26
292.8798828125	0.0999511157606321	599818	412	6	stim06_sf1_pattern2_cont2_shape1.png	2	76	0	469.276698580714	469.376649696474	0.0999511157606321	stim06_sf1_pattern2_cont2_shape1.png	1	2	2	1	1	2	0	0	0	0	0	0	0	0	0	0	0	0	1	26
293.3798828125	0.100008592129598	600842	413	1	stim01_sf1_pattern1_cont1_shape2.png	2	77	0	469.776647115905	469.876655708034	0.100008592129598	stim01_sf1_pattern1_cont1_shape2.png	1	1	1	2	1	1	0	0	0	0	0	0	0	0	0	0	0	0	1	26
293.8798828125	0.0999722295309766	601866	414	0	stim00_sf1_pattern1_cont1_shape1.png	2	78	0	470.276670135776	470.376642365307	0.0999722295309766	stim00_sf1_pattern1_cont1_shape1.png	1	1	1	1	1	1	0	0	0	0	0	0	0	0	0	0	0	0	1	26
294.3798828125	0.0999654848528735	602890	415	13	stim13_sf2_pattern2_cont1_shape2.png	2	79	0	470.776657966035	470.876623450888	0.0999654848528735	stim13_sf2_pattern2_cont1_shape2.png	2	2	1	2	1	3	0	0	0	0	0	0	0	0	0	0	0	0	1	26
294.8798828125	0.100005073167267	603914	416	9	stim09_sf2_pattern1_cont1_shape2.png	2	80	0	471.276621163564	471.376626236732	0.100005073167267	stim09_sf2_pattern1_cont1_shape2.png	2	1	1	2	1	3	0	0	0	0	0	0	0	0	0	0	0	0	1	26
295.3798828125	0.0999986217393598	604938	417	8	stim08_sf2_pattern1_cont1_shape1.png	2	81	0	471.776614565511	471.876613187251	0.0999986217393598	stim08_sf2_pattern1_cont1_shape1.png	2	1	1	1	1	3	0	0	0	0	0	0	0	0	0	0	0	0	1	26
295.8798828125	0.0999986217393598	605962	418	3	stim03_sf1_pattern1_cont2_shape2.png	2	82	0	472.276607967458	472.376606589198	0.0999986217393598	stim03_sf1_pattern1_cont2_shape2.png	1	1	2	2	1	2	0	0	0	0	0	0	0	0	0	0	0	0	1	26
296.3798828125	0.0999880648560065	606986	419	12	stim12_sf2_pattern2_cont1_shape1.png	2	83	0	472.776604301871	472.876592366727	0.0999880648560065	stim12_sf2_pattern2_cont1_shape1.png	2	2	1	1	1	3	0	0	0	0	0	0	0	0	0	0	0	0	1	26
296.8798828125	0.0999989149859175	608010	420	15	stim15_sf2_pattern2_cont2_shape2.png	2	84	0	473.276612952654	473.376611867639	0.0999989149859175	stim15_sf2_pattern2_cont2_shape2.png	2	2	2	2	1	4	0	0	0	0	0	0	0	0	0	0	0	0	1	26
297.3798828125	0.0999956892737828	609034	421	14	stim14_sf2_pattern2_cont2_shape1.png	2	85	0	473.776603715378	473.876599404652	0.0999956892737828	stim14_sf2_pattern2_cont2_shape1.png	2	2	2	1	1	4	0	0	0	0	0	0	0	0	0	0	0	0	1	26
297.8798828125	0.0999933432976832	610058	422	6	stim06_sf1_pattern2_cont2_shape1.png	2	86	0	474.276611486421	474.376604829718	0.0999933432976832	stim06_sf1_pattern2_cont2_shape1.png	1	2	2	1	1	2	0	0	0	0	0	0	0	0	0	0	0	0	1	26
298.3798828125	0.100022961225477	611082	423	8	stim08_sf2_pattern1_cont1_shape1.png	2	87	0	474.776589346286	474.876612307511	0.100022961225477	stim08_sf2_pattern1_cont1_shape1.png	2	1	1	1	1	3	0	0	0	0	0	0	0	0	0	0	0	0	1	26
298.8798828125	0.0999948095341097	612106	424	3	stim03_sf1_pattern1_cont2_shape2.png	2	88	0	475.276597117325	475.376591926859	0.0999948095341097	stim03_sf1_pattern1_cont2_shape2.png	1	1	2	2	1	2	0	0	0	0	0	0	0	0	0	0	0	0	1	26
299.3798828125	0.100035277588177	613130	425	9	stim09_sf2_pattern1_cont1_shape2.png	2	89	0	475.776583774597	475.876619052186	0.100035277588177	stim09_sf2_pattern1_cont1_shape2.png	2	1	1	2	1	3	0	0	0	0	0	0	0	0	0	0	0	0	1	26
299.8798828125	0.0999959825203405	614154	426	13	stim13_sf2_pattern2_cont1_shape2.png	2	90	0	476.276605914729	476.376601897249	0.0999959825203405	stim13_sf2_pattern2_cont1_shape2.png	2	2	1	2	1	3	0	0	0	0	0	0	0	0	0	0	0	0	1	26
300.3798828125	0.10000214070169	615178	427	2	stim02_sf1_pattern1_cont2_shape1.png	2	91	0	476.776570871738	476.87657301244	0.10000214070169	stim02_sf1_pattern1_cont2_shape1.png	1	1	2	1	1	2	0	0	0	0	0	0	0	0	0	0	0	0	1	26
300.8798828125	0.0999992082324752	616202	428	5	stim05_sf1_pattern2_cont1_shape2.png	2	92	0	477.276577176544	477.376576384777	0.0999992082324752	stim05_sf1_pattern2_cont1_shape2.png	1	2	1	2	1	1	0	0	0	0	0	0	0	0	0	0	0	0	1	26
301.3798828125	0.100024720704823	617226	429	1	stim01_sf1_pattern1_cont1_shape2.png	2	93	0	477.77653245641	477.876557177115	0.100024720704823	stim01_sf1_pattern1_cont1_shape2.png	1	1	1	2	1	1	0	0	0	0	0	0	0	0	0	0	0	0	1	26
301.8798828125	0.0999927568045678	618250	430	4	stim04_sf1_pattern2_cont1_shape1.png	2	94	0	478.276566033168	478.376558789972	0.0999927568045678	stim04_sf1_pattern2_cont1_shape1.png	1	2	1	1	1	1	0	0	0	0	0	0	0	0	0	0	0	0	1	26
302.3798828125	0.100019442263147	619274	431	11	stim11_sf2_pattern1_cont2_shape2.png	2	95	0	478.776539787577	478.87655922984	0.100019442263147	stim11_sf2_pattern1_cont2_shape2.png	2	1	2	2	1	4	0	0	0	0	0	0	0	0	0	0	0	0	1	26
302.8798828125	0.0999968622600136	620298	432	0	stim00_sf1_pattern1_cont1_shape1.png	2	96	0	479.27654843836	479.37654530062	0.0999968622600136	stim00_sf1_pattern1_cont1_shape1.png	1	1	1	1	1	1	0	0	0	0	0	0	0	0	0	0	0	0	1	26
303.3798828125	0.0999871851163334	621322	433	12	stim12_sf2_pattern2_cont1_shape1.png	2	97	0	479.776539787577	479.876526972694	0.0999871851163334	stim12_sf2_pattern2_cont1_shape1.png	2	2	1	1	1	3	0	0	0	0	0	0	0	0	0	0	0	0	1	26
303.8798828125	0.100010938105697	622346	434	10	stim10_sf2_pattern1_cont2_shape1.png	2	98	0	480.276516767706	480.376527705812	0.100010938105697	stim10_sf2_pattern1_cont2_shape1.png	2	1	2	1	1	4	0	0	0	0	0	0	0	0	0	0	0	0	1	26
304.3798828125	0.100005366413825	623370	435	7	stim07_sf1_pattern2_cont2_shape2.png	2	99	0	480.776504304718	480.876509671132	0.100005366413825	stim07_sf1_pattern2_cont2_shape2.png	1	2	2	2	1	2	0	0	0	0	0	0	0	0	0	0	0	0	1	26
304.8798828125	0.100033811355388	624394	436	13	stim13_sf2_pattern2_cont1_shape2.png	2	100	0	481.276479525364	481.37651333672	0.100033811355388	stim13_sf2_pattern2_cont1_shape2.png	2	2	1	2	1	3	0	0	0	0	0	0	0	0	0	0	0	0	1	26
305.3798828125	0.100013577328355	625418	437	8	stim08_sf2_pattern1_cont1_shape1.png	2	101	0	481.776493454585	481.876507031913	0.100013577328355	stim08_sf2_pattern1_cont1_shape1.png	2	1	1	1	1	3	0	0	0	0	0	0	0	0	0	0	0	0	1	26
305.8798828125	0.100012404338486	626442	438	7	stim07_sf1_pattern2_cont2_shape2.png	2	102	0	482.276470434714	482.376482839052	0.100012404338486	stim07_sf1_pattern2_cont2_shape2.png	1	2	2	2	1	2	0	0	0	0	0	0	0	0	0	0	0	0	1	26
306.3798828125	0.0999675375824154	627466	439	2	stim02_sf1_pattern1_cont2_shape1.png	2	103	0	482.776493454585	482.876460992167	0.0999675375824154	stim02_sf1_pattern1_cont2_shape1.png	1	1	2	1	1	2	0	0	0	0	0	0	0	0	0	0	0	0	1	26
306.8798828125	0.0999936365442409	628490	440	14	stim14_sf2_pattern2_cont2_shape1.png	2	104	0	483.27649272147	483.376486358015	0.0999936365442409	stim14_sf2_pattern2_cont2_shape1.png	2	2	2	1	1	4	0	0	0	0	0	0	0	0	0	0	0	0	1	26
307.3798828125	0.100000674468902	629514	441	6	stim06_sf1_pattern2_cont2_shape1.png	2	105	0	483.776464423154	483.876465097623	0.100000674468902	stim06_sf1_pattern2_cont2_shape1.png	1	2	2	1	1	2	0	0	0	0	0	0	0	0	0	0	0	0	1	26
307.8798828125	0.0999951027806674	630538	442	0	stim00_sf1_pattern1_cont1_shape1.png	2	106	1	484.276476592895	484.376471695676	0.0999951027806674	stim00_sf1_pattern1_cont1_shape1.png	1	1	1	1	1	1	0	0	0	0	0	0	0	0	0	0	0	0	1	26
308.3798828125	0.10000477992071	631562	443	0	stim00_sf1_pattern1_cont1_shape1.png	2	107	1	484.776448881075	484.876453660996	0.10000477992071	stim00_sf1_pattern1_cont1_shape1.png	1	1	1	1	1	1	0	0	0	0	0	0	0	0	0	0	0	0	1	26
308.8798828125	0.100006539403694	632586	444	8	stim08_sf2_pattern1_cont1_shape1.png	2	108	2	485.276453719645	485.376460259049	0.100006539403694	stim08_sf2_pattern1_cont1_shape1.png	2	1	1	1	1	3	0	0	0	0	0	0	0	0	0	0	0	0	1	26
309.37939453125	0.100000087972148	633609	445	2	stim02_sf1_pattern1_cont2_shape1.png	2	109	2	485.776435391723	485.876435479695	0.100000087972148	stim02_sf1_pattern1_cont2_shape1.png	1	1	2	1	1	2	0	0	0	0	0	0	0	0	0	0	0	0	1	26
309.87939453125	0.0999854256333492	634633	446	10	stim10_sf2_pattern1_cont2_shape1.png	2	110	0	486.276462517049	486.376447942683	0.0999854256333492	stim10_sf2_pattern1_cont2_shape1.png	2	1	2	1	1	4	0	0	0	0	0	0	0	0	0	0	0	0	1	26
310.37939453125	0.100035864081292	635657	447	5	stim05_sf1_pattern2_cont1_shape2.png	2	111	0	486.776401081846	486.876436945928	0.100035864081292	stim05_sf1_pattern2_cont1_shape2.png	1	2	1	2	1	1	0	0	0	0	0	0	0	0	0	0	0	0	1	26
310.87939453125	0.0999830796572496	636681	448	4	stim04_sf1_pattern2_cont1_shape1.png	2	112	0	487.27638304717	487.376366126828	0.0999830796572496	stim04_sf1_pattern2_cont1_shape1.png	1	2	1	1	1	1	0	0	0	0	0	0	0	0	0	0	0	0	1	26
311.37939453125	0.10000800564012	637705	449	9	stim09_sf2_pattern1_cont1_shape2.png	2	113	0	487.776389058727	487.876397064367	0.10000800564012	stim09_sf2_pattern1_cont1_shape2.png	2	1	1	2	1	3	0	0	0	0	0	0	0	0	0	0	0	0	1	26
311.87939453125	0.099994516287552	638729	450	1	stim01_sf1_pattern1_cont1_shape2.png	2	114	0	488.276395070287	488.376389586574	0.099994516287552	stim01_sf1_pattern1_cont1_shape2.png	1	1	1	2	1	1	0	0	0	0	0	0	0	0	0	0	0	0	1	26
312.37939453125	0.100010351608944	639753	451	15	stim15_sf2_pattern2_cont2_shape2.png	2	115	0	488.776370877429	488.876381229038	0.100010351608944	stim15_sf2_pattern2_cont2_shape2.png	2	2	2	2	1	4	0	0	0	0	0	0	0	0	0	0	0	0	1	26
