onset	duration	onsetsample	eventnumber	stimnumber	stimname	blocknumber	trialnumber	istarget	time_stimon	time_stimoff	stimdur	stimfilename	spatial_freq	pattern	contrast	shape	is_fast_stream	category	ppt_1_response	ppt_1_keypressed	ppt_1_rt	ppt_1_correct	ppt_2_response	ppt_2_keypressed	ppt_2_rt	ppt_2_correct	button1	button2	button3	button4	task_part_number	subjectnr
734.33642578125	0.0999912905681413	1503921	0	1	stim01_sf1_pattern1_cont1_shape2.png	0	0	0	31.6263763171555	31.7263676077237	0.0999912905681413	stim01_sf1_pattern1_cont1_shape2.png	1	1	1	2	1	4	0	0	0	0	0	0	0	0	0	0	0	0	1	7
734.8447265625	0.10000214070169	1504962	1	5	stim05_sf1_pattern2_cont1_shape2.png	0	1	0	32.1347266661323	32.234728806834	0.10000214070169	stim05_sf1_pattern2_cont1_shape2.png	1	2	1	2	1	3	0	0	0	0	0	0	0	0	0	0	0	0	1	7
735.36962890625	0.0999417318635096	1506037	2	15	stim15_sf2_pattern2_cont2_shape2.png	0	2	0	32.659718770461	32.7596605023246	0.0999417318635096	stim15_sf2_pattern2_cont2_shape2.png	2	2	2	2	1	1	0	0	0	0	0	0	0	0	0	0	0	0	1	7
735.86962890625	0.100005366417463	1507061	3	14	stim14_sf2_pattern2_cont2_shape1.png	0	3	0	33.1597112926684	33.2597166590858	0.100005366417463	stim14_sf2_pattern2_cont2_shape1.png	2	2	2	1	1	1	0	0	0	0	0	0	0	0	0	0	0	0	1	7
736.36962890625	0.0999842526471184	1508085	4	6	stim06_sf1_pattern2_cont2_shape1.png	0	4	0	33.6597134920194	33.7596977446665	0.0999842526471184	stim06_sf1_pattern2_cont2_shape1.png	1	2	2	1	1	1	0	0	0	0	0	0	0	0	0	0	0	0	1	7
736.86962890625	0.100010058366024	1509109	5	3	stim03_sf1_pattern1_cont2_shape2.png	0	5	0	34.159691938381	34.259701996747	0.100010058366024	stim03_sf1_pattern1_cont2_shape2.png	1	1	2	2	1	2	0	0	0	0	0	0	0	0	0	0	0	0	1	7
737.36962890625	0.100065188762528	1510133	6	11	stim11_sf2_pattern1_cont2_shape2.png	0	6	0	34.6596991229271	34.7597643116897	0.100065188762528	stim11_sf2_pattern1_cont2_shape2.png	2	1	2	2	1	2	0	0	0	0	0	0	0	0	0	0	0	0	1	7
737.86962890625	0.100009178622713	1511157	7	0	stim00_sf1_pattern1_cont1_shape1.png	0	7	0	35.1596576285083	35.259666807131	0.100009178622713	stim00_sf1_pattern1_cont1_shape1.png	1	1	1	1	1	4	0	0	0	0	0	0	0	0	0	0	0	0	1	7
738.36962890625	0.0999968622600136	1512181	8	8	stim08_sf2_pattern1_cont1_shape1.png	0	8	0	35.6596771294171	35.7596739916771	0.0999968622600136	stim08_sf2_pattern1_cont1_shape1.png	2	1	1	1	1	4	0	0	0	0	0	0	0	0	0	0	0	0	1	7
738.86962890625	0.0999370399113104	1513205	9	9	stim09_sf2_pattern1_cont1_shape2.png	0	9	0	36.1596942843571	36.2596313242684	0.0999370399113104	stim09_sf2_pattern1_cont1_shape2.png	2	1	1	2	1	4	0	0	0	0	0	0	0	0	0	0	0	0	1	7
739.36962890625	0.0999965690134559	1514229	10	10	stim10_sf2_pattern1_cont2_shape1.png	0	10	0	36.6596214125275	36.7596179815409	0.0999965690134559	stim10_sf2_pattern1_cont2_shape1.png	2	1	2	1	1	2	0	0	0	0	0	0	0	0	0	0	0	0	1	7
739.86962890625	0.100009178626351	1515253	11	13	stim13_sf2_pattern2_cont1_shape2.png	0	11	0	37.1596007386288	37.2596099172551	0.100009178626351	stim13_sf2_pattern2_cont1_shape2.png	2	2	1	2	1	3	0	0	0	0	0	0	0	0	0	0	0	0	1	7
740.36962890625	0.0999951027770294	1516277	12	12	stim12_sf2_pattern2_cont1_shape1.png	0	12	0	37.6596055772025	37.7596006799795	0.0999951027770294	stim12_sf2_pattern2_cont1_shape1.png	2	2	1	1	1	3	0	0	0	0	0	0	0	0	0	0	0	0	1	7
740.86962890625	0.0999986217429978	1517301	13	7	stim07_sf1_pattern2_cont2_shape2.png	0	13	0	38.1596066035636	38.2596052253066	0.0999986217429978	stim07_sf1_pattern2_cont2_shape2.png	1	2	2	2	1	1	0	0	0	0	0	0	0	0	0	0	0	0	1	7
741.36962890625	0.100000967711821	1518325	14	2	stim02_sf1_pattern1_cont2_shape1.png	0	14	0	38.6596137881133	38.7596147558252	0.100000967711821	stim02_sf1_pattern1_cont2_shape1.png	1	1	2	1	1	2	0	0	0	0	0	0	0	0	0	0	0	0	1	7
741.86962890625	0.100005073167267	1519349	15	4	stim04_sf1_pattern2_cont1_shape1.png	0	15	0	39.1596027913583	39.2596078645256	0.100005073167267	stim04_sf1_pattern2_cont1_shape1.png	1	2	1	1	1	3	0	0	0	0	0	0	0	0	0	0	0	0	1	7
742.36962890625	0.100003606934479	1520373	16	5	stim05_sf1_pattern2_cont1_shape2.png	0	16	0	39.6596000055142	39.7596036124487	0.100003606934479	stim05_sf1_pattern2_cont1_shape2.png	1	2	1	2	1	3	0	0	0	0	0	0	0	0	0	0	0	0	1	7
742.86962890625	0.100018269276916	1521397	17	3	stim03_sf1_pattern1_cont2_shape2.png	0	17	0	40.1595928209645	40.2596110902414	0.100018269276916	stim03_sf1_pattern1_cont2_shape2.png	1	1	2	2	1	2	0	0	0	0	0	0	0	0	0	0	0	0	1	7
743.36962890625	0.100004193431232	1522421	18	2	stim02_sf1_pattern1_cont2_shape1.png	0	18	0	40.6596035244729	40.7596077179041	0.100004193431232	stim02_sf1_pattern1_cont2_shape1.png	1	1	2	1	1	2	0	0	0	0	0	0	0	0	0	0	0	0	1	7
743.86962890625	0.100005659664021	1523445	19	12	stim12_sf2_pattern2_cont1_shape1.png	0	19	0	41.1595907682386	41.2595964279026	0.100005659664021	stim12_sf2_pattern2_cont1_shape1.png	2	2	1	1	1	3	0	0	0	0	0	0	0	0	0	0	0	0	1	7
744.36962890625	0.0999959825167025	1524469	20	7	stim07_sf1_pattern2_cont2_shape2.png	0	20	0	41.6595876891479	41.7595836716646	0.0999959825167025	stim07_sf1_pattern2_cont2_shape2.png	1	2	2	2	1	1	0	0	0	0	0	0	0	0	0	0	0	0	1	7
744.86962890625	0.100000087972148	1525493	21	9	stim09_sf2_pattern1_cont1_shape2.png	0	21	0	42.1595749329135	42.2595750208857	0.100000087972148	stim09_sf2_pattern1_cont1_shape2.png	2	1	1	2	1	4	0	0	0	0	0	0	0	0	0	0	0	0	1	7
745.369140625	0.099994516283914	1526516	22	13	stim13_sf2_pattern2_cont1_shape2.png	0	22	0	42.6595692146002	42.7595637308841	0.099994516283914	stim13_sf2_pattern2_cont1_shape2.png	2	2	1	2	1	3	0	0	0	0	0	0	0	0	0	0	0	0	1	7
745.869140625	0.10000829888304	1527540	23	15	stim15_sf2_pattern2_cont2_shape2.png	0	23	0	43.1595488339481	43.2595571328311	0.10000829888304	stim15_sf2_pattern2_cont2_shape2.png	2	2	2	2	1	1	0	0	0	0	0	0	0	0	0	0	0	0	1	7
746.369140625	0.0999968622600136	1528564	24	8	stim08_sf2_pattern1_cont1_shape1.png	0	24	0	43.6595522062853	43.7595490685453	0.0999968622600136	stim08_sf2_pattern1_cont1_shape1.png	2	1	1	1	1	4	0	0	0	0	0	0	0	0	0	0	0	0	1	7
746.869140625	0.0999995014826709	1529588	25	0	stim00_sf1_pattern1_cont1_shape1.png	0	25	0	44.1595467812185	44.2595462827012	0.0999995014826709	stim00_sf1_pattern1_cont1_shape1.png	1	1	1	1	1	4	0	0	0	0	0	0	0	0	0	0	0	0	1	7
747.369140625	0.100021201742493	1530612	26	4	stim04_sf1_pattern2_cont1_shape1.png	0	26	0	44.6595149639434	44.7595361656859	0.100021201742493	stim04_sf1_pattern2_cont1_shape1.png	1	2	1	1	1	3	0	0	0	0	0	0	0	0	0	0	0	0	1	7
747.869140625	0.100005659664021	1531636	27	1	stim01_sf1_pattern1_cont1_shape2.png	0	27	0	45.1595209755033	45.2595266351673	0.100005659664021	stim01_sf1_pattern1_cont1_shape2.png	1	1	1	2	1	4	0	0	0	0	0	0	0	0	0	0	0	0	1	7
748.369140625	0.100003020441363	1532660	28	6	stim06_sf1_pattern2_cont2_shape1.png	0	28	0	45.6595161369296	45.759519157371	0.100003020441363	stim06_sf1_pattern2_cont2_shape1.png	1	2	2	1	1	1	0	0	0	0	0	0	0	0	0	0	0	0	1	7
748.869140625	0.0999880648560065	1533684	29	10	stim10_sf2_pattern1_cont2_shape1.png	0	29	0	46.1595027942021	46.2594908590581	0.0999880648560065	stim10_sf2_pattern1_cont2_shape1.png	2	1	2	1	1	2	0	0	0	0	0	0	0	0	0	0	0	0	1	7
749.369140625	0.100002727194806	1534708	30	11	stim11_sf2_pattern1_cont2_shape2.png	0	30	0	46.6595023543305	46.7595050815253	0.100002727194806	stim11_sf2_pattern1_cont2_shape2.png	2	1	2	2	1	2	0	0	0	0	0	0	0	0	0	0	0	0	1	7
749.869140625	0.100025307197939	1535732	31	14	stim14_sf2_pattern2_cont2_shape1.png	0	31	0	47.1594711235484	47.2594964307464	0.100025307197939	stim14_sf2_pattern2_cont2_shape1.png	2	2	2	1	1	1	0	0	0	0	0	0	0	0	0	0	0	0	1	7
750.369140625	0.100000381218706	1536756	32	5	stim05_sf1_pattern2_cont1_shape2.png	0	32	0	47.659486812252	47.7594871934707	0.100000381218706	stim05_sf1_pattern2_cont1_shape2.png	1	2	1	2	1	3	0	0	0	0	0	0	0	0	0	0	0	0	1	7
750.869140625	0.100019735509704	1537780	33	0	stim00_sf1_pattern1_cont1_shape1.png	0	33	0	48.1594409191275	48.2594606546372	0.100019735509704	stim00_sf1_pattern1_cont1_shape1.png	1	1	1	1	1	4	0	0	0	0	0	0	0	0	0	0	0	0	1	7
751.369140625	0.0999980352462444	1538804	34	7	stim07_sf1_pattern2_cont2_shape2.png	0	34	0	48.6594730296529	48.7594710648991	0.0999980352462444	stim07_sf1_pattern2_cont2_shape2.png	1	2	2	2	1	1	0	0	0	0	0	0	0	0	0	0	0	0	1	7
751.869140625	0.0999971555065713	1539828	35	9	stim09_sf2_pattern1_cont1_shape2.png	0	35	0	49.1594447313364	49.259441886843	0.0999971555065713	stim09_sf2_pattern1_cont1_shape2.png	2	1	1	2	1	4	0	0	0	0	0	0	0	0	0	0	0	0	1	7
752.369140625	0.0999980352462444	1540852	36	10	stim10_sf2_pattern1_cont2_shape1.png	0	36	0	49.659456021338	49.7594540565842	0.0999980352462444	stim10_sf2_pattern1_cont2_shape1.png	2	1	2	1	1	2	0	0	0	0	0	0	0	0	0	0	0	0	1	7
752.869140625	0.0999863053730223	1541876	37	2	stim02_sf1_pattern1_cont2_shape1.png	0	37	0	50.1594382799085	50.2594245852815	0.0999863053730223	stim02_sf1_pattern1_cont2_shape1.png	1	1	2	1	1	2	0	0	0	0	0	0	0	0	0	0	0	0	1	7
753.369140625	0.10000448667779	1542900	38	13	stim13_sf2_pattern2_cont1_shape2.png	0	38	0	50.6594058761366	50.7594103628144	0.10000448667779	stim13_sf2_pattern2_cont1_shape2.png	2	2	1	2	1	3	0	0	0	0	0	0	0	0	0	0	0	0	1	7
753.869140625	0.100009471869271	1543924	39	15	stim15_sf2_pattern2_cont2_shape2.png	0	39	0	51.1593834427586	51.2593929146278	0.100009471869271	stim15_sf2_pattern2_cont2_shape2.png	2	2	2	2	1	1	0	0	0	0	0	0	0	0	0	0	0	0	1	7
754.369140625	0.0999997947255906	1544948	40	6	stim06_sf1_pattern2_cont2_shape1.png	0	40	0	51.6593803636679	51.7593801583935	0.0999997947255906	stim06_sf1_pattern2_cont2_shape1.png	1	2	2	1	1	1	0	0	0	0	0	0	0	0	0	0	0	0	1	7
754.869140625	0.1000176827838	1545972	41	11	stim11_sf2_pattern1_cont2_shape2.png	0	41	0	52.1593679006764	52.2593855834602	0.1000176827838	stim11_sf2_pattern1_cont2_shape2.png	2	1	2	2	1	2	0	0	0	0	0	0	0	0	0	0	0	0	1	7
755.369140625	0.0999763349827845	1546996	42	3	stim03_sf1_pattern1_cont2_shape2.png	0	42	0	52.6593800704213	52.7593564054041	0.0999763349827845	stim03_sf1_pattern1_cont2_shape2.png	1	1	2	2	1	2	0	0	0	0	0	0	0	0	0	0	0	0	1	7
755.869140625	0.100005952910578	1548020	43	4	stim04_sf1_pattern2_cont1_shape1.png	0	43	0	53.1593497193753	53.2593556722859	0.100005952910578	stim04_sf1_pattern2_cont1_shape1.png	1	2	1	1	1	3	0	0	0	0	0	0	0	0	0	0	0	0	1	7
756.369140625	0.100005659664021	1549044	44	8	stim08_sf2_pattern1_cont1_shape1.png	0	44	0	53.6593730324967	53.7593786921607	0.100005659664021	stim08_sf2_pattern1_cont1_shape1.png	2	1	1	1	1	4	0	0	0	0	0	0	0	0	0	0	0	0	1	7
756.869140625	0.100013284081797	1550068	45	14	stim14_sf2_pattern2_cont2_shape1.png	0	45	0	54.1593544113239	54.2593676954057	0.100013284081797	stim14_sf2_pattern2_cont2_shape1.png	2	2	2	1	1	1	0	0	0	0	0	0	0	0	0	0	0	0	1	7
757.369140625	0.100001847451495	1551092	46	12	stim12_sf2_pattern2_cont1_shape1.png	0	46	0	54.6593615958736	54.7593634433251	0.100001847451495	stim12_sf2_pattern2_cont1_shape1.png	2	2	1	1	1	3	0	0	0	0	0	0	0	0	0	0	0	0	1	7
757.869140625	0.100006246153498	1552116	47	1	stim01_sf1_pattern1_cont1_shape2.png	0	47	0	55.1593415084681	55.2593477546216	0.100006246153498	stim01_sf1_pattern1_cont1_shape2.png	1	1	1	2	1	4	0	0	0	0	0	0	0	0	0	0	0	0	1	7
758.369140625	0.10001416382147	1553140	48	11	stim11_sf2_pattern1_cont2_shape2.png	0	48	0	55.6593686337947	55.7593827976161	0.10001416382147	stim11_sf2_pattern1_cont2_shape2.png	2	1	2	2	1	2	0	0	0	0	0	0	0	0	0	0	0	0	1	7
758.869140625	0.100019442259509	1554164	49	1	stim01_sf1_pattern1_cont1_shape2.png	0	49	0	56.1593409219749	56.2593603642345	0.100019442259509	stim01_sf1_pattern1_cont1_shape2.png	1	1	1	2	1	4	0	0	0	0	0	0	0	0	0	0	0	0	1	7
759.369140625	0.0999997947255906	1555188	50	6	stim06_sf1_pattern2_cont2_shape1.png	0	50	0	56.6593451740519	56.7593449687774	0.0999997947255906	stim06_sf1_pattern2_cont2_shape1.png	1	2	2	1	1	1	0	0	0	0	0	0	0	0	0	0	0	0	1	7
759.869140625	0.100012404338486	1556212	51	4	stim04_sf1_pattern2_cont1_shape1.png	0	51	0	57.1593242069066	57.2593366112451	0.100012404338486	stim04_sf1_pattern2_cont1_shape1.png	1	2	1	1	1	3	0	0	0	0	0	0	0	0	0	0	0	0	1	7
760.369140625	0.0999475967983017	1557236	52	15	stim15_sf2_pattern2_cont2_shape2.png	0	52	0	57.6593422415826	57.7592898383809	0.0999475967983017	stim15_sf2_pattern2_cont2_shape2.png	2	2	2	2	1	1	0	0	0	0	0	0	0	0	0	0	0	0	1	7
760.869140625	0.0999986217393598	1558260	53	2	stim02_sf1_pattern1_cont2_shape1.png	0	53	0	58.1593206879443	58.2593193096836	0.0999986217393598	stim02_sf1_pattern1_cont2_shape1.png	1	1	2	1	1	2	0	0	0	0	0	0	0	0	0	0	0	0	1	7
761.369140625	0.0999953960235871	1559284	54	0	stim00_sf1_pattern1_cont1_shape1.png	0	54	0	58.6593161426208	58.7593115386444	0.0999953960235871	stim00_sf1_pattern1_cont1_shape1.png	1	1	1	1	1	4	0	0	0	0	0	0	0	0	0	0	0	0	1	7
761.869140625	0.100032345118962	1560308	55	5	stim05_sf1_pattern2_cont1_shape2.png	0	55	0	59.1592723022259	59.2593046473448	0.100032345118962	stim05_sf1_pattern2_cont1_shape2.png	1	2	1	2	1	3	0	0	0	0	0	0	0	0	0	0	0	0	1	7
762.369140625	0.0999968622600136	1561332	56	3	stim03_sf1_pattern1_cont2_shape2.png	0	56	0	59.6592991343059	59.7592959965659	0.0999968622600136	stim03_sf1_pattern1_cont2_shape2.png	1	1	2	2	1	2	0	0	0	0	0	0	0	0	0	0	0	0	1	7
762.86865234375	0.100005073170905	1562355	57	12	stim12_sf2_pattern2_cont1_shape1.png	0	57	0	60.1592834456023	60.2592885187732	0.100005073170905	stim12_sf2_pattern2_cont1_shape1.png	2	2	1	1	1	3	0	0	0	0	0	0	0	0	0	0	0	0	1	7
763.36865234375	0.0999980352462444	1563379	58	7	stim07_sf1_pattern2_cont2_shape2.png	0	58	0	60.659283885474	60.7592819207202	0.0999980352462444	stim07_sf1_pattern2_cont2_shape2.png	1	2	2	2	1	1	0	0	0	0	0	0	0	0	0	0	0	0	1	7
763.86865234375	0.100026480184169	1564403	59	8	stim08_sf2_pattern1_cont1_shape1.png	0	59	0	61.159246496507	61.2592729766911	0.100026480184169	stim08_sf2_pattern1_cont1_shape1.png	2	1	1	1	1	4	0	0	0	0	0	0	0	0	0	0	0	0	1	7
764.36865234375	0.0999983284928021	1565427	60	9	stim09_sf2_pattern1_cont1_shape2.png	0	60	0	61.659266290666	61.7592646191588	0.0999983284928021	stim09_sf2_pattern1_cont1_shape2.png	2	1	1	2	1	4	0	0	0	0	0	0	0	0	0	0	0	0	1	7
764.86865234375	0.100036743824603	1566451	61	14	stim14_sf2_pattern2_cont2_shape1.png	0	61	0	62.1592212772812	62.2592580211058	0.100036743824603	stim14_sf2_pattern2_cont2_shape1.png	2	2	2	1	1	1	0	0	0	0	0	0	0	0	0	0	0	0	1	7
765.36865234375	0.100021788235608	1567475	62	10	stim10_sf2_pattern1_cont2_shape1.png	0	62	0	62.6592293415706	62.7592511298062	0.100021788235608	stim10_sf2_pattern1_cont2_shape1.png	2	1	2	1	1	2	0	0	0	0	0	0	0	0	0	0	0	0	1	7
765.86865234375	0.100019442263147	1568499	63	13	stim13_sf2_pattern2_cont1_shape2.png	0	63	0	63.1592321274147	63.2592515696779	0.100019442263147	stim13_sf2_pattern2_cont1_shape2.png	2	2	1	2	1	3	0	0	0	0	0	0	0	0	0	0	0	0	1	7
766.36865234375	0.0999971555065713	1569523	64	5	stim05_sf1_pattern2_cont1_shape2.png	0	64	0	63.6592357929985	63.7592329485051	0.0999971555065713	stim05_sf1_pattern2_cont1_shape2.png	1	2	1	2	1	3	0	0	0	0	0	0	0	0	0	0	0	0	1	7
766.86865234375	0.0999687105686462	1570547	65	3	stim03_sf1_pattern1_cont2_shape2.png	0	65	0	64.1592151190998	64.2591838296685	0.0999687105686462	stim03_sf1_pattern1_cont2_shape2.png	1	1	2	2	1	2	0	0	0	0	0	0	0	0	0	0	0	0	1	7
767.36865234375	0.099997448753129	1571571	66	2	stim02_sf1_pattern1_cont2_shape1.png	0	66	0	64.6592214239063	64.7592188726594	0.099997448753129	stim02_sf1_pattern1_cont2_shape1.png	1	1	2	1	1	2	0	0	0	0	0	0	0	0	0	0	0	0	1	7
767.86865234375	0.100005659664021	1572595	67	8	stim08_sf2_pattern1_cont1_shape1.png	0	67	0	65.159182861953	65.259188521617	0.100005659664021	stim08_sf2_pattern1_cont1_shape1.png	2	1	1	1	1	4	0	0	0	0	0	0	0	0	0	0	0	0	1	7
768.36865234375	0.100007419143367	1573619	68	9	stim09_sf2_pattern1_cont1_shape2.png	0	68	0	65.6591794896158	65.7591869087591	0.100007419143367	stim09_sf2_pattern1_cont1_shape2.png	2	1	1	2	1	4	0	0	0	0	0	0	0	0	0	0	0	0	1	7
768.86865234375	0.100020028756262	1574643	69	15	stim15_sf2_pattern2_cont2_shape2.png	0	69	0	66.1591497250665	66.2591697538228	0.100020028756262	stim15_sf2_pattern2_cont2_shape2.png	2	2	2	2	1	1	0	0	0	0	0	0	0	0	0	0	0	0	1	7
769.36865234375	0.0999983284928021	1575667	70	1	stim01_sf1_pattern1_cont1_shape2.png	0	70	0	66.6591442999998	66.7591426284926	0.0999983284928021	stim01_sf1_pattern1_cont1_shape2.png	1	1	1	2	1	4	0	0	0	0	0	0	0	0	0	0	0	0	1	7
769.86865234375	0.100009178622713	1576691	71	13	stim13_sf2_pattern2_cont1_shape2.png	0	71	0	67.1591268518168	67.2591360304395	0.100009178622713	stim13_sf2_pattern2_cont1_shape2.png	2	2	1	2	1	3	0	0	0	0	0	0	0	0	0	0	0	0	1	7
770.36865234375	0.0999786809588841	1577715	72	7	stim07_sf1_pattern2_cont2_shape2.png	0	72	0	67.6591569096126	67.7591355905715	0.0999786809588841	stim07_sf1_pattern2_cont2_shape2.png	1	2	2	2	1	1	0	0	0	0	0	0	0	0	0	0	0	0	1	7
770.86865234375	0.0999880648560065	1578739	73	4	stim04_sf1_pattern2_cont1_shape1.png	0	73	0	68.159131837012	68.259119901868	0.0999880648560065	stim04_sf1_pattern2_cont1_shape1.png	1	2	1	1	1	3	0	0	0	0	0	0	0	0	0	0	0	0	1	7
771.36865234375	0.0999965690134559	1579763	74	10	stim10_sf2_pattern1_cont2_shape1.png	0	74	0	68.6591363823354	68.7591329513489	0.0999965690134559	stim10_sf2_pattern1_cont2_shape1.png	2	1	2	1	1	2	0	0	0	0	0	0	0	0	0	0	0	0	1	7
771.86865234375	0.0999722295309766	1580787	75	0	stim00_sf1_pattern1_cont1_shape1.png	0	75	0	69.1591374087002	69.2591096382312	0.0999722295309766	stim00_sf1_pattern1_cont1_shape1.png	1	1	1	1	1	4	0	0	0	0	0	0	0	0	0	0	0	0	1	7
772.36865234375	0.0999977419996867	1581811	76	11	stim11_sf2_pattern1_cont2_shape2.png	0	76	0	69.6591334498698	69.7591311918695	0.0999977419996867	stim11_sf2_pattern1_cont2_shape2.png	2	1	2	2	1	2	0	0	0	0	0	0	0	0	0	0	0	0	1	7
772.86865234375	0.100020615249377	1582835	77	12	stim12_sf2_pattern2_cont1_shape1.png	0	77	0	70.159107790776	70.2591284060254	0.100020615249377	stim12_sf2_pattern2_cont1_shape1.png	2	2	1	1	1	3	0	0	0	0	0	0	0	0	0	0	0	0	1	7
773.36865234375	0.100017389537243	1583859	78	6	stim06_sf1_pattern2_cont2_shape1.png	0	78	0	70.6591138023323	70.7591311918695	0.100017389537243	stim06_sf1_pattern2_cont2_shape1.png	1	2	2	1	1	1	0	0	0	0	0	0	0	0	0	0	0	0	1	7
773.86865234375	0.099994516287552	1584883	79	14	stim14_sf2_pattern2_cont2_shape1.png	0	79	0	71.1591289045427	71.2591234208303	0.099994516287552	stim14_sf2_pattern2_cont2_shape1.png	2	2	2	1	1	1	0	0	0	0	0	0	0	0	0	0	0	0	1	7
774.36865234375	0.0999942230373563	1585907	80	11	stim11_sf2_pattern1_cont2_shape2.png	0	80	0	71.6591205470104	71.7591147700477	0.0999942230373563	stim11_sf2_pattern1_cont2_shape2.png	2	1	2	2	1	2	0	0	0	0	0	0	0	0	0	0	0	0	1	7
774.86865234375	0.100006539403694	1586931	81	7	stim07_sf1_pattern2_cont2_shape2.png	0	81	0	72.1590878499919	72.2590943893956	0.100006539403694	stim07_sf1_pattern2_cont2_shape2.png	1	2	2	2	1	1	0	0	0	0	0	0	0	0	0	0	0	0	1	7
775.36865234375	0.100001554208575	1587955	82	14	stim14_sf2_pattern2_cont2_shape1.png	0	82	0	72.6590970872676	72.7590986414762	0.100001554208575	stim14_sf2_pattern2_cont2_shape1.png	2	2	2	1	1	1	0	0	0	0	0	0	0	0	0	0	0	0	1	7
775.86865234375	0.0999953960272251	1588979	83	9	stim09_sf2_pattern1_cont1_shape2.png	0	83	0	73.1590734808997	73.2590688769269	0.0999953960272251	stim09_sf2_pattern1_cont1_shape2.png	2	1	1	2	1	4	0	0	0	0	0	0	0	0	0	0	0	0	1	7
776.36865234375	0.099983666154003	1590003	84	2	stim02_sf1_pattern1_cont2_shape1.png	0	84	0	73.6590938615518	73.7590775277058	0.099983666154003	stim02_sf1_pattern1_cont2_shape1.png	1	1	2	1	1	2	0	0	0	0	0	0	0	0	0	0	0	0	1	7
776.86865234375	0.100011524598813	1591027	85	12	stim12_sf2_pattern2_cont1_shape1.png	0	85	0	74.1590588185609	74.2590703431597	0.100011524598813	stim12_sf2_pattern2_cont1_shape1.png	2	2	1	1	1	3	0	0	0	0	0	0	0	0	0	0	0	0	1	7
777.36865234375	0.0999918770612567	1592051	86	0	stim00_sf1_pattern1_cont1_shape1.png	0	86	0	74.6590692288228	74.759061105884	0.0999918770612567	stim00_sf1_pattern1_cont1_shape1.png	1	1	1	1	1	4	0	0	0	0	0	0	0	0	0	0	0	0	1	7
777.86865234375	0.100038210057392	1593075	87	12	stim12_sf2_pattern2_cont1_shape1.png	0	87	1	75.1590162977773	75.2590545078347	0.100038210057392	stim12_sf2_pattern2_cont1_shape1.png	2	2	1	1	1	3	0	0	0	0	0	0	0	0	0	0	0	0	1	7
778.36865234375	0.0999915838183369	1594099	88	12	stim12_sf2_pattern2_cont1_shape1.png	0	88	1	75.6590522205079	75.7590438043262	0.0999915838183369	stim12_sf2_pattern2_cont1_shape1.png	2	2	1	1	1	3	0	0	0	0	0	0	0	0	0	0	0	0	1	7
778.86865234375	0.0999953960235871	1595123	89	8	stim08_sf2_pattern1_cont1_shape1.png	0	89	2	76.1590432764824	76.259038672506	0.0999953960235871	stim08_sf2_pattern1_cont1_shape1.png	2	1	1	1	1	4	0	0	0	0	0	0	0	0	0	0	0	0	1	7
779.36865234375	0.0999965690134559	1596147	90	15	stim15_sf2_pattern2_cont2_shape2.png	0	90	2	76.6590349189464	76.7590314879599	0.0999965690134559	stim15_sf2_pattern2_cont2_shape2.png	2	2	2	2	1	1	0	0	0	0	0	0	0	0	0	0	0	0	1	7
779.8681640625	0.100013284078159	1597170	91	8	stim08_sf2_pattern1_cont1_shape1.png	0	91	0	77.1590116058287	77.2590248899069	0.100013284078159	stim08_sf2_pattern1_cont1_shape1.png	2	1	1	1	1	4	0	0	0	0	0	0	0	0	0	0	0	0	1	7
780.3681640625	0.100022081485804	1598194	92	1	stim01_sf1_pattern1_cont1_shape2.png	0	92	0	77.6589938643956	77.7590159458814	0.100022081485804	stim01_sf1_pattern1_cont1_shape2.png	1	1	1	2	1	4	0	0	0	0	0	0	0	0	0	0	0	0	1	7
780.8681640625	0.100035277588177	1599218	93	3	stim03_sf1_pattern1_cont2_shape2.png	0	93	0	78.1589740702402	78.2590093478284	0.100035277588177	stim03_sf1_pattern1_cont2_shape2.png	1	1	2	2	1	2	0	0	0	0	0	0	0	0	0	0	0	0	1	7
781.3681640625	0.100004193427594	1600242	94	13	stim13_sf2_pattern2_cont1_shape2.png	0	94	0	78.6590014888134	78.759005682241	0.100004193427594	stim13_sf2_pattern2_cont1_shape2.png	2	2	1	2	1	3	0	0	0	0	0	0	0	0	0	0	0	0	1	7
781.8681640625	0.0999939297907986	1601266	95	6	stim06_sf1_pattern2_cont2_shape1.png	0	95	0	79.1589981164761	79.2589920462669	0.0999939297907986	stim06_sf1_pattern2_cont2_shape1.png	1	2	2	1	1	1	0	0	0	0	0	0	0	0	0	0	0	0	1	7
782.3681640625	0.0999930500511255	1602290	96	15	stim15_sf2_pattern2_cont2_shape2.png	0	96	0	79.6589950373855	79.7589880874366	0.0999930500511255	stim15_sf2_pattern2_cont2_shape2.png	2	2	2	2	1	1	0	0	0	0	0	0	0	0	0	0	0	0	1	7
782.8681640625	0.0999798539451149	1603314	97	5	stim05_sf1_pattern2_cont1_shape2.png	0	97	0	80.1589731904969	80.258953044442	0.0999798539451149	stim05_sf1_pattern2_cont1_shape2.png	1	2	1	2	1	3	0	0	0	0	0	0	0	0	0	0	0	0	1	7
783.3681640625	0.0999842526471184	1604338	98	4	stim04_sf1_pattern2_cont1_shape1.png	0	98	0	80.6589495841326	80.7589338367798	0.0999842526471184	stim04_sf1_pattern2_cont1_shape1.png	1	2	1	1	1	3	0	0	0	0	0	0	0	0	0	0	0	0	1	7
783.8681640625	0.0999549279695202	1605362	99	10	stim10_sf2_pattern1_cont2_shape1.png	0	99	0	81.1589682053018	81.2589231332713	0.0999549279695202	stim10_sf2_pattern1_cont2_shape1.png	2	1	2	1	1	2	0	0	0	0	0	0	0	0	0	0	0	0	1	7
784.3681640625	0.0999766282293422	1606386	100	3	stim03_sf1_pattern1_cont2_shape2.png	0	100	0	81.6589402002355	81.7589168284649	0.0999766282293422	stim03_sf1_pattern1_cont2_shape2.png	1	1	2	2	1	2	0	0	0	0	0	0	0	0	0	0	0	0	1	7
784.8681640625	0.100018855766393	1607410	101	8	stim08_sf2_pattern1_cont1_shape1.png	0	101	0	82.1589054504911	82.2589243062575	0.100018855766393	stim08_sf2_pattern1_cont1_shape1.png	2	1	1	1	1	4	0	0	0	0	0	0	0	0	0	0	0	0	1	7
785.3681640625	0.0999775079690153	1608434	102	12	stim12_sf2_pattern2_cont1_shape1.png	0	102	0	82.6589173269858	82.7588948349548	0.0999775079690153	stim12_sf2_pattern2_cont1_shape1.png	2	2	1	1	1	3	0	0	0	0	0	0	0	0	0	0	0	0	1	7
785.8681640625	0.100005366413825	1609458	103	9	stim09_sf2_pattern1_cont1_shape2.png	0	103	0	83.1588825772415	83.2588879436553	0.100005366413825	stim09_sf2_pattern1_cont1_shape2.png	2	1	1	2	1	4	0	0	0	0	0	0	0	0	0	0	0	0	1	7
786.3681640625	0.100018855770031	1610482	104	2	stim02_sf1_pattern1_cont2_shape1.png	0	104	0	83.6589006119175	83.7589194676875	0.100018855770031	stim02_sf1_pattern1_cont2_shape1.png	1	1	2	1	1	2	0	0	0	0	0	0	0	0	0	0	0	0	1	7
786.8681640625	0.100015630054259	1611506	105	0	stim00_sf1_pattern1_cont1_shape1.png	0	105	0	84.1588816974981	84.2588973275524	0.100015630054259	stim00_sf1_pattern1_cont1_shape1.png	1	1	1	1	1	4	0	0	0	0	0	0	0	0	0	0	0	0	1	7
787.3681640625	0.1000323451226	1612530	106	14	stim14_sf2_pattern2_cont2_shape1.png	0	106	0	84.658865715548	84.7588980606706	0.1000323451226	stim14_sf2_pattern2_cont2_shape1.png	2	2	2	1	1	1	0	0	0	0	0	0	0	0	0	0	0	0	1	7
787.8681640625	0.100009765119466	1613554	107	6	stim06_sf1_pattern2_cont2_shape1.png	0	107	0	85.1588761258099	85.2588858909294	0.100009765119466	stim06_sf1_pattern2_cont2_shape1.png	1	2	2	1	1	1	0	0	0	0	0	0	0	0	0	0	0	0	1	7
788.3681640625	0.100022667978919	1614578	108	1	stim01_sf1_pattern1_cont1_shape2.png	0	108	0	85.6588616100926	85.7588842780715	0.100022667978919	stim01_sf1_pattern1_cont1_shape2.png	1	1	1	2	1	4	0	0	0	0	0	0	0	0	0	0	0	0	1	7
788.8681640625	0.100020028756262	1615602	109	15	stim15_sf2_pattern2_cont2_shape2.png	0	109	0	86.1588761258099	86.2588961545662	0.100020028756262	stim15_sf2_pattern2_cont2_shape2.png	2	2	2	2	1	1	0	0	0	0	0	0	0	0	0	0	0	0	1	7
789.3681640625	0.100025893691054	1616626	110	10	stim10_sf2_pattern1_cont2_shape1.png	0	110	0	86.6588601438598	86.7588860375508	0.100025893691054	stim10_sf2_pattern1_cont2_shape1.png	2	1	2	1	1	2	0	0	0	0	0	0	0	0	0	0	0	0	1	7
789.8681640625	0.100006832650251	1617650	111	11	stim11_sf2_pattern1_cont2_shape2.png	0	111	0	87.1588597039918	87.258866536642	0.100006832650251	stim11_sf2_pattern1_cont2_shape2.png	2	1	2	2	1	2	0	0	0	0	0	0	0	0	0	0	0	0	1	7
790.3681640625	0.0999907040750259	1618674	112	13	stim13_sf2_pattern2_cont1_shape2.png	0	112	0	87.6588709939933	87.7588616980684	0.0999907040750259	stim13_sf2_pattern2_cont1_shape2.png	2	2	1	2	1	3	0	0	0	0	0	0	0	0	0	0	0	0	1	7
790.8681640625	0.100004779924348	1619698	113	5	stim05_sf1_pattern2_cont1_shape2.png	0	113	0	88.1588441619097	88.258848941834	0.100004779924348	stim05_sf1_pattern2_cont1_shape2.png	1	2	1	2	1	3	0	0	0	0	0	0	0	0	0	0	0	0	1	7
791.3681640625	0.100045541224972	1620722	114	7	stim07_sf1_pattern2_cont2_shape2.png	0	114	0	88.6587991485285	88.7588446897535	0.100045541224972	stim07_sf1_pattern2_cont2_shape2.png	1	2	2	2	1	1	0	0	0	0	0	0	0	0	0	0	0	0	1	7
791.8681640625	0.10001797602672	1621746	115	3	stim03_sf1_pattern1_cont2_shape2.png	0	115	1	89.1588236346361	89.2588416106628	0.10001797602672	stim03_sf1_pattern1_cont2_shape2.png	1	1	2	2	1	2	0	0	0	0	0	0	0	0	0	0	0	0	1	7
792.3681640625	0.100000967711821	1622770	116	3	stim03_sf1_pattern1_cont2_shape2.png	0	116	1	89.6588299394425	89.7588309071543	0.100000967711821	stim03_sf1_pattern1_cont2_shape2.png	1	1	2	2	1	2	0	0	0	0	0	0	0	0	0	0	0	0	1	7
792.8681640625	0.10000829888304	1623794	117	8	stim08_sf2_pattern1_cont1_shape1.png	0	117	2	90.1588148372321	90.2588231361151	0.10000829888304	stim08_sf2_pattern1_cont1_shape1.png	2	1	1	1	1	4	0	0	0	0	0	0	0	0	0	0	0	0	1	7
793.3681640625	0.100045834475168	1624818	118	6	stim06_sf1_pattern2_cont2_shape1.png	0	118	2	90.6587698238473	90.7588156583224	0.100045834475168	stim06_sf1_pattern2_cont2_shape1.png	1	2	2	1	1	1	0	0	0	0	0	0	0	0	0	0	0	0	1	7
793.8681640625	0.100033224862273	1625842	119	4	stim04_sf1_pattern2_cont1_shape1.png	0	119	0	91.1587702637189	91.2588034885812	0.100033224862273	stim04_sf1_pattern2_cont1_shape1.png	1	2	1	1	1	3	0	0	0	0	0	0	0	0	0	0	0	0	1	7
794.3681640625	0.0999863053766603	1626866	120	2	stim02_sf1_pattern1_cont2_shape1.png	0	120	0	91.6588094121653	91.7587957175419	0.0999863053766603	stim02_sf1_pattern1_cont2_shape1.png	1	1	2	1	1	2	0	0	0	0	0	0	0	0	0	0	0	0	1	7
794.8681640625	0.100006246153498	1627890	121	14	stim14_sf2_pattern2_cont2_shape1.png	0	121	0	92.1587817003456	92.2587879464991	0.100006246153498	stim14_sf2_pattern2_cont2_shape1.png	2	2	2	1	1	1	0	0	0	0	0	0	0	0	0	0	0	0	1	7
795.3681640625	0.100046714214841	1628914	122	9	stim09_sf2_pattern1_cont1_shape2.png	0	122	0	92.6587416721559	92.7587883863707	0.100046714214841	stim09_sf2_pattern1_cont1_shape2.png	2	1	1	2	1	4	0	0	0	0	0	0	0	0	0	0	0	0	1	7
795.8681640625	0.100005366417463	1629938	123	6	stim06_sf1_pattern2_cont2_shape1.png	0	123	0	93.1587655717703	93.2587709381878	0.100005366417463	stim06_sf1_pattern2_cont2_shape1.png	1	2	2	1	1	1	0	0	0	0	0	0	0	0	0	0	0	0	1	7
796.3681640625	0.100020615249377	1630962	124	3	stim03_sf1_pattern1_cont2_shape2.png	0	124	0	93.658748416834	93.7587690320834	0.100020615249377	stim03_sf1_pattern1_cont2_shape2.png	1	1	2	2	1	2	0	0	0	0	0	0	0	0	0	0	0	0	1	7
796.8681640625	0.100017976030358	1631986	125	1	stim01_sf1_pattern1_cont1_shape2.png	0	125	0	94.1587432850138	94.2587612610441	0.100017976030358	stim01_sf1_pattern1_cont1_shape2.png	1	1	1	2	1	4	0	0	0	0	0	0	0	0	0	0	0	0	1	7
797.36767578125	0.0999959825203405	1633009	126	13	stim13_sf2_pattern2_cont1_shape2.png	0	126	0	94.6587601467036	94.7587561292239	0.0999959825203405	stim13_sf2_pattern2_cont1_shape2.png	2	2	1	2	1	3	0	0	0	0	0	0	0	0	0	0	0	0	1	7
797.86767578125	0.100020908495935	1634033	127	0	stim00_sf1_pattern1_cont1_shape1.png	0	127	0	95.1587165995552	95.2587375080511	0.100020908495935	stim00_sf1_pattern1_cont1_shape1.png	1	1	1	1	1	4	0	0	0	0	0	0	0	0	0	0	0	0	1	7
798.36767578125	0.100000381218706	1635057	128	4	stim04_sf1_pattern2_cont1_shape1.png	0	128	0	95.6587202651426	95.7587206463613	0.100000381218706	stim04_sf1_pattern2_cont1_shape1.png	1	2	1	1	1	3	0	0	0	0	0	0	0	0	0	0	0	0	1	7
798.86767578125	0.100028532913711	1636081	129	12	stim12_sf2_pattern2_cont1_shape1.png	0	129	0	96.1587048696856	96.2587334025993	0.100028532913711	stim12_sf2_pattern2_cont1_shape1.png	2	2	1	1	1	3	0	0	0	0	0	0	0	0	0	0	0	0	1	7
799.36767578125	0.0999936365442409	1637105	130	7	stim07_sf1_pattern2_cont2_shape2.png	0	130	0	96.6586856620197	96.7586792985639	0.0999936365442409	stim07_sf1_pattern2_cont2_shape2.png	1	2	2	2	1	1	0	0	0	0	0	0	0	0	0	0	0	0	1	7
799.86767578125	0.100001554208575	1638129	131	5	stim05_sf1_pattern2_cont1_shape2.png	0	131	0	97.1586664543538	97.2586680085624	0.100001554208575	stim05_sf1_pattern2_cont1_shape2.png	1	2	1	2	1	3	0	0	0	0	0	0	0	0	0	0	0	0	1	7
800.36767578125	0.0999833729038073	1639153	132	8	stim08_sf2_pattern1_cont1_shape1.png	0	132	0	97.6586695334481	97.7586529063519	0.0999833729038073	stim08_sf2_pattern1_cont1_shape1.png	2	1	1	1	1	4	0	0	0	0	0	0	0	0	0	0	0	0	1	7
800.86767578125	0.0999986217393598	1640177	133	11	stim11_sf2_pattern1_cont2_shape2.png	0	133	0	98.158651792015	98.2586504137544	0.0999986217393598	stim11_sf2_pattern1_cont2_shape2.png	2	1	2	2	1	2	0	0	0	0	0	0	0	0	0	0	0	0	1	7
801.36767578125	0.0999962757668982	1641201	134	15	stim15_sf2_pattern2_cont2_shape2.png	0	134	0	98.6586534048729	98.7586496806398	0.0999962757668982	stim15_sf2_pattern2_cont2_shape2.png	2	2	2	2	1	1	0	0	0	0	0	0	0	0	0	0	0	0	1	7
801.86767578125	0.100006539403694	1642225	135	10	stim10_sf2_pattern1_cont2_shape1.png	0	135	0	99.1586600029259	99.2586665423296	0.100006539403694	stim10_sf2_pattern1_cont2_shape1.png	2	1	2	1	1	2	0	0	0	0	0	0	0	0	0	0	0	0	1	7
802.36767578125	0.0999736957637651	1643249	136	7	stim07_sf1_pattern2_cont2_shape2.png	0	136	0	99.6586668942255	99.7586405899892	0.0999736957637651	stim07_sf1_pattern2_cont2_shape2.png	1	2	2	2	1	1	0	0	0	0	0	0	0	0	0	0	0	0	1	7
802.86767578125	0.100015630050621	1644273	137	4	stim04_sf1_pattern2_cont1_shape1.png	0	137	0	100.158648859549	100.2586644896	0.100015630050621	stim04_sf1_pattern2_cont1_shape1.png	1	2	1	1	1	3	0	0	0	0	0	0	0	0	0	0	0	0	1	7
803.36767578125	0.0999907040750259	1645297	138	3	stim03_sf1_pattern1_cont2_shape2.png	0	138	0	100.658661322537	100.758652026612	0.0999907040750259	stim03_sf1_pattern1_cont2_shape2.png	1	1	2	2	1	2	0	0	0	0	0	0	0	0	0	0	0	0	1	7
803.86767578125	0.100006539403694	1646321	139	9	stim09_sf2_pattern1_cont1_shape2.png	0	139	0	101.158642408118	101.258648947522	0.100006539403694	stim09_sf2_pattern1_cont1_shape2.png	2	1	1	2	1	4	0	0	0	0	0	0	0	0	0	0	0	0	1	7
804.36767578125	0.0999387993942946	1647345	140	0	stim00_sf1_pattern1_cont1_shape1.png	0	140	0	101.658669826695	101.758608626089	0.0999387993942946	stim00_sf1_pattern1_cont1_shape1.png	1	1	1	1	1	4	0	0	0	0	0	0	0	0	0	0	0	0	1	7
804.86767578125	0.100006539403694	1648369	141	15	stim15_sf2_pattern2_cont2_shape2.png	0	141	0	102.158633610714	102.258640150118	0.100006539403694	stim15_sf2_pattern2_cont2_shape2.png	2	2	2	2	1	1	0	0	0	0	0	0	0	0	0	0	0	0	1	7
805.36767578125	0.0999951027806674	1649393	142	2	stim02_sf1_pattern1_cont2_shape1.png	0	142	0	102.65860795162	102.758603054401	0.0999951027806674	stim02_sf1_pattern1_cont2_shape1.png	1	1	2	1	1	2	0	0	0	0	0	0	0	0	0	0	0	0	1	7
805.86767578125	0.0999995014790329	1650417	143	1	stim01_sf1_pattern1_cont1_shape2.png	0	143	0	103.158618655129	103.258618156608	0.0999995014790329	stim01_sf1_pattern1_cont1_shape2.png	1	1	1	2	1	4	0	0	0	0	0	0	0	0	0	0	0	0	1	7
806.36767578125	0.100021494989051	1651441	144	6	stim06_sf1_pattern2_cont2_shape1.png	0	144	0	103.658575694473	103.758597189462	0.100021494989051	stim06_sf1_pattern2_cont2_shape1.png	1	2	2	1	1	1	0	0	0	0	0	0	0	0	0	0	0	0	1	7
806.86767578125	0.100016509793932	1652465	145	5	stim05_sf1_pattern2_cont1_shape2.png	0	145	0	104.158597248112	104.258613757906	0.100016509793932	stim05_sf1_pattern2_cont1_shape2.png	1	2	1	2	1	3	0	0	0	0	0	0	0	0	0	0	0	0	1	7
807.36767578125	0.0999775079726533	1653489	146	14	stim14_sf2_pattern2_cont2_shape1.png	0	146	0	104.658602379932	104.758579887904	0.0999775079726533	stim14_sf2_pattern2_cont2_shape1.png	2	2	2	1	1	1	0	0	0	0	0	0	0	0	0	0	0	0	1	7
807.86767578125	0.0999927568045678	1654513	147	11	stim11_sf2_pattern1_cont2_shape2.png	0	147	0	105.158600180581	105.258592937385	0.0999927568045678	stim11_sf2_pattern1_cont2_shape2.png	2	1	2	2	1	2	0	0	0	0	0	0	0	0	0	0	0	0	1	7
808.36767578125	0.100007712389925	1655537	148	12	stim12_sf2_pattern2_cont1_shape1.png	0	148	0	105.658591236555	105.758598948945	0.100007712389925	stim12_sf2_pattern2_cont1_shape1.png	2	2	1	1	1	3	0	0	0	0	0	0	0	0	0	0	0	0	1	7
808.86767578125	0.100004193427594	1656561	149	13	stim13_sf2_pattern2_cont1_shape2.png	0	149	0	106.158567923434	106.258572116862	0.100004193427594	stim13_sf2_pattern2_cont1_shape2.png	2	2	1	2	1	3	0	0	0	0	0	0	0	0	0	0	0	0	1	7
809.36767578125	0.0999780944621307	1657585	150	10	stim10_sf2_pattern1_cont2_shape1.png	0	150	0	106.658573348501	106.758551442963	0.0999780944621307	stim10_sf2_pattern1_cont2_shape1.png	2	1	2	1	1	2	0	0	0	0	0	0	0	0	0	0	0	0	1	7
809.86767578125	0.0999968622600136	1658609	151	8	stim08_sf2_pattern1_cont1_shape1.png	0	151	0	107.15855824629	107.25855510855	0.0999968622600136	stim08_sf2_pattern1_cont1_shape1.png	2	1	1	1	1	4	0	0	0	0	0	0	0	0	0	0	0	0	1	7
810.36767578125	0.100005659664021	1659633	152	11	stim11_sf2_pattern1_cont2_shape2.png	0	152	0	107.658557806419	107.758563466083	0.100005659664021	stim11_sf2_pattern1_cont2_shape2.png	2	1	2	2	1	2	0	0	0	0	0	0	0	0	0	0	0	0	1	7
810.86767578125	0.0999968622600136	1660657	153	1	stim01_sf1_pattern1_cont1_shape2.png	0	153	0	108.158550621873	108.258547484133	0.0999968622600136	stim01_sf1_pattern1_cont1_shape2.png	1	1	1	2	1	4	0	0	0	0	0	0	0	0	0	0	0	0	1	7
811.36767578125	0.0999956892737828	1661681	154	9	stim09_sf2_pattern1_cont1_shape2.png	0	154	0	108.658542850833	108.758538540107	0.0999956892737828	stim09_sf2_pattern1_cont1_shape2.png	2	1	1	2	1	4	0	0	0	0	0	0	0	0	0	0	0	0	1	7
811.86767578125	0.100002727194806	1662705	155	14	stim14_sf2_pattern2_cont2_shape1.png	0	155	0	109.158520710702	109.258523437897	0.100002727194806	stim14_sf2_pattern2_cont2_shape1.png	2	2	2	1	1	1	0	0	0	0	0	0	0	0	0	0	0	0	1	7
812.36767578125	0.0999789742054418	1663729	156	6	stim06_sf1_pattern2_cont2_shape1.png	0	156	0	109.658521443816	109.758500418022	0.0999789742054418	stim06_sf1_pattern2_cont2_shape1.png	1	2	2	1	1	1	0	0	0	0	0	0	0	0	0	0	0	0	1	7
812.86767578125	0.0999775079726533	1664753	157	12	stim12_sf2_pattern2_cont1_shape1.png	0	157	0	110.158532733818	110.258510241791	0.0999775079726533	stim12_sf2_pattern2_cont1_shape1.png	2	2	1	1	1	3	0	0	0	0	0	0	0	0	0	0	0	0	1	7
813.36767578125	0.0999968622563756	1665777	158	2	stim02_sf1_pattern1_cont2_shape1.png	0	158	0	110.6585094207	110.758506282957	0.0999968622563756	stim02_sf1_pattern1_cont2_shape1.png	1	1	2	1	1	2	0	0	0	0	0	0	0	0	0	0	0	0	1	7
813.86767578125	0.100026186937612	1666801	159	10	stim10_sf2_pattern1_cont2_shape1.png	0	159	0	111.158471151994	111.258497338931	0.100026186937612	stim10_sf2_pattern1_cont2_shape1.png	2	1	2	1	1	2	0	0	0	0	0	0	0	0	0	0	0	0	1	7
814.36767578125	0.100042902002315	1667825	160	15	stim15_sf2_pattern2_cont2_shape2.png	0	160	0	111.658453703811	111.758496605813	0.100042902002315	stim15_sf2_pattern2_cont2_shape2.png	2	2	2	2	1	1	0	0	0	0	0	0	0	0	0	0	0	0	1	7
814.8671875	0.0999930500511255	1668848	161	4	stim04_sf1_pattern2_cont1_shape1.png	0	161	0	112.158451211209	112.258444261261	0.0999930500511255	stim04_sf1_pattern2_cont1_shape1.png	1	2	1	1	1	3	0	0	0	0	0	0	0	0	0	0	0	0	1	7
815.3671875	0.0999786809588841	1669872	162	5	stim05_sf1_pattern2_cont1_shape2.png	0	162	0	112.65845634303	112.758435023989	0.0999786809588841	stim05_sf1_pattern2_cont1_shape2.png	1	2	1	2	1	3	0	0	0	0	0	0	0	0	0	0	0	0	1	7
815.8671875	0.100022667975281	1670896	163	3	stim03_sf1_pattern1_cont2_shape2.png	0	163	0	113.158419247313	113.258441915288	0.100022667975281	stim03_sf1_pattern1_cont2_shape2.png	1	1	2	2	1	2	0	0	0	0	0	0	0	0	0	0	0	0	1	7
816.3671875	0.10002032200282	1671920	164	8	stim08_sf2_pattern1_cont1_shape1.png	0	164	0	113.658420566921	113.758440888923	0.10002032200282	stim08_sf2_pattern1_cont1_shape1.png	2	1	1	1	1	4	0	0	0	0	0	0	0	0	0	0	0	0	1	7
816.8671875	0.0999648983597581	1672944	165	7	stim07_sf1_pattern2_cont2_shape2.png	0	165	0	114.158444759782	114.258409658141	0.0999648983597581	stim07_sf1_pattern2_cont2_shape2.png	1	2	2	2	1	1	0	0	0	0	0	0	0	0	0	0	0	0	1	7
817.3671875	0.0999997947255906	1673968	166	13	stim13_sf2_pattern2_cont1_shape2.png	0	166	0	114.658426431859	114.758426226585	0.0999997947255906	stim13_sf2_pattern2_cont1_shape2.png	2	2	1	2	1	3	0	0	0	0	0	0	0	0	0	0	0	0	1	7
817.8671875	0.0999816134280991	1674992	167	0	stim00_sf1_pattern1_cont1_shape1.png	0	167	0	115.158432443415	115.258414056843	0.0999816134280991	stim00_sf1_pattern1_cont1_shape1.png	1	1	1	1	1	4	0	0	0	0	0	0	0	0	0	0	0	0	1	7
844.5166015625	0.10000477992071	1729570	168	8	stim08_sf2_pattern1_cont1_shape1.png	1	0	0	141.80801543182	141.90802021174	0.10000477992071	stim08_sf2_pattern1_cont1_shape1.png	2	1	1	1	1	4	0	0	0	0	0	0	0	0	0	0	0	0	1	7
845.0166015625	0.100015043561143	1730594	169	4	stim04_sf1_pattern2_cont1_shape1.png	1	1	0	142.30800942026	142.408024463821	0.100015043561143	stim04_sf1_pattern2_cont1_shape1.png	1	2	1	1	1	3	0	0	0	0	0	0	0	0	0	0	0	0	1	7
845.5166015625	0.0999959825203405	1731618	170	1	stim01_sf1_pattern1_cont1_shape2.png	1	2	0	142.807980828697	142.907976811217	0.0999959825203405	stim01_sf1_pattern1_cont1_shape2.png	1	1	1	2	1	4	0	0	0	0	0	0	0	0	0	0	0	0	1	7
846.0166015625	0.100027946416958	1732642	171	2	stim02_sf1_pattern1_cont2_shape1.png	1	3	0	143.307935815315	143.407963761732	0.100027946416958	stim02_sf1_pattern1_cont2_shape1.png	1	1	2	1	1	2	0	0	0	0	0	0	0	0	0	0	0	0	1	7
846.5166015625	0.0999986217393598	1733666	172	5	stim05_sf1_pattern2_cont1_shape2.png	1	4	0	143.807957368954	143.907955990693	0.0999986217393598	stim05_sf1_pattern2_cont1_shape2.png	1	2	1	2	1	3	0	0	0	0	0	0	0	0	0	0	0	0	1	7
847.0166015625	0.10000595290694	1734690	173	3	stim03_sf1_pattern1_cont2_shape2.png	1	5	0	144.30795282363	144.407958776537	0.10000595290694	stim03_sf1_pattern1_cont2_shape2.png	1	1	2	2	1	2	0	0	0	0	0	0	0	0	0	0	0	0	1	7
847.5166015625	0.0999780944657687	1735714	174	9	stim09_sf2_pattern1_cont1_shape2.png	1	6	0	144.807962060902	144.907940155368	0.0999780944657687	stim09_sf2_pattern1_cont1_shape2.png	2	1	1	2	1	4	0	0	0	0	0	0	0	0	0	0	0	0	1	7
848.0166015625	0.100005952910578	1736738	175	11	stim11_sf2_pattern1_cont2_shape2.png	1	7	0	145.307951064147	145.407957017058	0.100005952910578	stim11_sf2_pattern1_cont2_shape2.png	2	1	2	2	1	2	0	0	0	0	0	0	0	0	0	0	0	0	1	7
848.5166015625	0.0999939297907986	1737762	176	10	stim10_sf2_pattern1_cont2_shape1.png	1	8	0	145.807955902721	145.907949832512	0.0999939297907986	stim10_sf2_pattern1_cont2_shape1.png	2	1	2	1	1	2	0	0	0	0	0	0	0	0	0	0	0	0	1	7
849.0166015625	0.0999839594005607	1738786	177	0	stim00_sf1_pattern1_cont1_shape1.png	1	9	0	146.307953410123	146.407937369524	0.0999839594005607	stim00_sf1_pattern1_cont1_shape1.png	1	1	1	1	1	4	0	0	0	0	0	0	0	0	0	0	0	0	1	7
849.5166015625	0.100002433948248	1739810	178	6	stim06_sf1_pattern2_cont2_shape1.png	1	10	0	146.807935082197	146.907937516145	0.100002433948248	stim06_sf1_pattern2_cont2_shape1.png	1	2	2	1	1	1	0	0	0	0	0	0	0	0	0	0	0	0	1	7
850.0166015625	0.0999505292675167	1740834	179	14	stim14_sf2_pattern2_cont2_shape1.png	1	11	0	147.307953996617	147.407904525884	0.0999505292675167	stim14_sf2_pattern2_cont2_shape1.png	2	2	2	1	1	1	0	0	0	0	0	0	0	0	0	0	0	0	1	7
850.5166015625	0.0999992082324752	1741858	180	15	stim15_sf2_pattern2_cont2_shape2.png	1	12	0	147.807951210772	147.907950419005	0.0999992082324752	stim15_sf2_pattern2_cont2_shape2.png	2	2	2	2	1	1	0	0	0	0	0	0	0	0	0	0	0	0	1	7
851.0166015625	0.0999493562812859	1742882	181	7	stim07_sf1_pattern2_cont2_shape2.png	1	13	0	148.307938454534	148.407887810816	0.0999493562812859	stim07_sf1_pattern2_cont2_shape2.png	1	2	2	2	1	1	0	0	0	0	0	0	0	0	0	0	0	0	1	7
851.5166015625	0.0999953960235871	1743906	182	13	stim13_sf2_pattern2_cont1_shape2.png	1	14	0	148.80792775103	148.907923147053	0.0999953960235871	stim13_sf2_pattern2_cont1_shape2.png	2	2	1	2	1	3	0	0	0	0	0	0	0	0	0	0	0	0	1	7
852.0166015625	0.0999951027806674	1744930	183	12	stim12_sf2_pattern2_cont1_shape1.png	1	15	0	149.307882444398	149.407877547179	0.0999951027806674	stim12_sf2_pattern2_cont1_shape1.png	2	2	1	1	1	3	0	0	0	0	0	0	0	0	0	0	0	0	1	7
852.5166015625	0.0999965690134559	1745954	184	13	stim13_sf2_pattern2_cont1_shape2.png	1	16	0	149.807910742715	149.907907311728	0.0999965690134559	stim13_sf2_pattern2_cont1_shape2.png	2	2	1	2	1	3	0	0	0	0	0	0	0	0	0	0	0	0	1	7
853.01611328125	0.0999898243389907	1746977	185	15	stim15_sf2_pattern2_cont2_shape2.png	1	17	0	150.307905610895	150.407895435234	0.0999898243389907	stim15_sf2_pattern2_cont2_shape2.png	2	2	2	2	1	1	0	0	0	0	0	0	0	0	0	0	0	0	1	7
853.51611328125	0.0999971555065713	1748001	186	6	stim06_sf1_pattern2_cont2_shape1.png	1	18	0	150.807894907386	150.907892062893	0.0999971555065713	stim06_sf1_pattern2_cont2_shape1.png	1	2	2	1	1	1	0	0	0	0	0	0	0	0	0	0	0	0	1	7
854.01611328125	0.0999578604350972	1749025	187	9	stim09_sf2_pattern1_cont1_shape2.png	1	19	0	151.30788889583	151.407846756265	0.0999578604350972	stim09_sf2_pattern1_cont1_shape2.png	2	1	1	2	1	4	0	0	0	0	0	0	0	0	0	0	0	0	1	7
854.51611328125	0.0999739890103228	1750049	188	11	stim11_sf2_pattern1_cont2_shape2.png	1	20	0	151.807878778814	151.907852767825	0.0999739890103228	stim11_sf2_pattern1_cont2_shape2.png	2	1	2	2	1	2	0	0	0	0	0	0	0	0	0	0	0	0	1	7
855.01611328125	0.0999695903083193	1751073	189	5	stim05_sf1_pattern2_cont1_shape2.png	1	21	0	152.307873940241	152.407843530549	0.0999695903083193	stim05_sf1_pattern2_cont1_shape2.png	1	2	1	2	1	3	0	0	0	0	0	0	0	0	0	0	0	0	1	7
855.51611328125	0.099997448753129	1752097	190	7	stim07_sf1_pattern2_cont2_shape2.png	1	22	0	152.807865582708	152.907863031462	0.099997448753129	stim07_sf1_pattern2_cont2_shape2.png	1	2	2	2	1	1	0	0	0	0	0	0	0	0	0	0	0	0	1	7
856.01611328125	0.0999986217393598	1753121	191	2	stim02_sf1_pattern1_cont2_shape1.png	1	23	0	153.307858104916	153.407856726655	0.0999986217393598	stim02_sf1_pattern1_cont2_shape1.png	1	1	2	1	1	2	0	0	0	0	0	0	0	0	0	0	0	0	1	7
856.51611328125	0.100001847455133	1754145	192	12	stim12_sf2_pattern2_cont1_shape1.png	1	24	0	153.807845641928	153.907847489383	0.100001847455133	stim12_sf2_pattern2_cont1_shape1.png	2	2	1	1	1	3	0	0	0	0	0	0	0	0	0	0	0	0	1	7
857.01611328125	0.0999962757632602	1755169	193	4	stim04_sf1_pattern2_cont1_shape1.png	1	25	0	154.30784314933	154.407839425094	0.0999962757632602	stim04_sf1_pattern2_cont1_shape1.png	1	2	1	1	1	3	0	0	0	0	0	0	0	0	0	0	0	0	1	7
857.51611328125	0.0999965690134559	1756193	194	14	stim14_sf2_pattern2_cont2_shape1.png	1	26	0	154.807834498548	154.907831067561	0.0999965690134559	stim14_sf2_pattern2_cont2_shape1.png	2	2	2	1	1	1	0	0	0	0	0	0	0	0	0	0	0	0	1	7
858.01611328125	0.0999995014790329	1757217	195	3	stim03_sf1_pattern1_cont2_shape2.png	1	27	0	155.307825261276	155.407824762755	0.0999995014790329	stim03_sf1_pattern1_cont2_shape2.png	1	1	2	2	1	2	0	0	0	0	0	0	0	0	0	0	0	0	1	7
858.51611328125	0.0999959825203405	1758241	196	0	stim00_sf1_pattern1_cont1_shape1.png	1	28	0	155.807819542963	155.907815525483	0.0999959825203405	stim00_sf1_pattern1_cont1_shape1.png	1	1	1	1	1	4	0	0	0	0	0	0	0	0	0	0	0	0	1	7
859.01611328125	0.0999751619965537	1759265	197	1	stim01_sf1_pattern1_cont1_shape2.png	1	29	0	156.307815290886	156.407790452882	0.0999751619965537	stim01_sf1_pattern1_cont1_shape2.png	1	1	1	2	1	4	0	0	0	0	0	0	0	0	0	0	0	0	1	7
859.51611328125	0.0999980352462444	1760289	198	10	stim10_sf2_pattern1_cont2_shape1.png	1	30	0	156.807800481922	156.907798517168	0.0999980352462444	stim10_sf2_pattern1_cont2_shape1.png	2	1	2	1	1	2	0	0	0	0	0	0	0	0	0	0	0	0	1	7
860.01611328125	0.0999997947255906	1761313	199	8	stim08_sf2_pattern1_cont1_shape1.png	1	31	0	157.307792124389	157.407791919115	0.0999997947255906	stim08_sf2_pattern1_cont1_shape1.png	2	1	1	1	1	4	0	0	0	0	0	0	0	0	0	0	0	0	1	7
860.51611328125	0.100001847455133	1762337	200	3	stim03_sf1_pattern1_cont2_shape2.png	1	32	0	157.807748283991	157.907750131446	0.100001847455133	stim03_sf1_pattern1_cont2_shape2.png	1	1	2	2	1	2	0	0	0	0	0	0	0	0	0	0	0	0	1	7
861.01611328125	0.0999912905681413	1763361	201	15	stim15_sf2_pattern2_cont2_shape2.png	1	33	0	158.307764559191	158.407755849759	0.0999912905681413	stim15_sf2_pattern2_cont2_shape2.png	2	2	2	2	1	1	0	0	0	0	0	0	0	0	0	0	0	0	1	7
861.51611328125	0.0999687105686462	1764385	202	12	stim12_sf2_pattern2_cont1_shape1.png	1	34	0	158.807756201655	158.907724912224	0.0999687105686462	stim12_sf2_pattern2_cont1_shape1.png	2	2	1	1	1	3	0	0	0	0	0	0	0	0	0	0	0	0	1	7
862.01611328125	0.0999980352462444	1765409	203	8	stim08_sf2_pattern1_cont1_shape1.png	1	35	0	159.307742565681	159.407740600927	0.0999980352462444	stim08_sf2_pattern1_cont1_shape1.png	2	1	1	1	1	4	0	0	0	0	0	0	0	0	0	0	0	0	1	7
862.51611328125	0.100003900181036	1766433	204	4	stim04_sf1_pattern2_cont1_shape1.png	1	36	0	159.807725997238	159.907729897419	0.100003900181036	stim04_sf1_pattern2_cont1_shape1.png	1	2	1	1	1	3	0	0	0	0	0	0	0	0	0	0	0	0	1	7
863.01611328125	0.0999962757668982	1767457	205	5	stim05_sf1_pattern2_cont1_shape2.png	1	37	0	160.307731422301	160.407727698068	0.0999962757668982	stim05_sf1_pattern2_cont1_shape2.png	1	2	1	2	1	3	0	0	0	0	0	0	0	0	0	0	0	0	1	7
863.51611328125	0.100001260958379	1768481	206	6	stim06_sf1_pattern2_cont2_shape1.png	1	38	0	160.807721305289	160.907722566248	0.100001260958379	stim06_sf1_pattern2_cont2_shape1.png	1	2	2	1	1	1	0	0	0	0	0	0	0	0	0	0	0	0	1	7
864.01611328125	0.0999654848528735	1769505	207	14	stim14_sf2_pattern2_cont2_shape1.png	1	39	0	161.30772350464	161.407688989493	0.0999654848528735	stim14_sf2_pattern2_cont2_shape1.png	2	2	2	1	1	1	0	0	0	0	0	0	0	0	0	0	0	0	1	7
864.51611328125	0.100000381222344	1770529	208	11	stim11_sf2_pattern1_cont2_shape2.png	1	40	0	161.807713974118	161.90771435534	0.100000381222344	stim11_sf2_pattern1_cont2_shape2.png	2	1	2	2	1	2	0	0	0	0	0	0	0	0	0	0	0	0	1	7
865.01611328125	0.100014457068028	1771553	209	13	stim13_sf2_pattern2_cont1_shape2.png	1	41	0	162.307708842298	162.407723299366	0.100014457068028	stim13_sf2_pattern2_cont1_shape2.png	2	2	1	2	1	3	0	0	0	0	0	0	0	0	0	0	0	0	1	7
865.51611328125	0.100029412653384	1772577	210	9	stim09_sf2_pattern1_cont1_shape2.png	1	42	0	162.807695792817	162.90772520547	0.100029412653384	stim09_sf2_pattern1_cont1_shape2.png	2	1	1	2	1	4	0	0	0	0	0	0	0	0	0	0	0	0	1	7
866.01611328125	0.0999912905681413	1773601	211	0	stim00_sf1_pattern1_cont1_shape1.png	1	43	0	163.307714707236	163.407705997804	0.0999912905681413	stim00_sf1_pattern1_cont1_shape1.png	1	1	1	1	1	4	0	0	0	0	0	0	0	0	0	0	0	0	1	7
866.51611328125	0.0999980352462444	1774625	212	10	stim10_sf2_pattern1_cont2_shape1.png	1	44	0	163.80769725905	163.907695294296	0.0999980352462444	stim10_sf2_pattern1_cont2_shape1.png	2	1	2	1	1	2	0	0	0	0	0	0	0	0	0	0	0	0	1	7
867.01611328125	0.0999965690134559	1775649	213	2	stim02_sf1_pattern1_cont2_shape1.png	1	45	0	164.30769036775	164.407686936764	0.0999965690134559	stim02_sf1_pattern1_cont2_shape1.png	1	1	2	1	1	2	0	0	0	0	0	0	0	0	0	0	0	0	1	7
867.51611328125	0.0999854256369872	1776673	214	1	stim01_sf1_pattern1_cont1_shape2.png	1	46	0	164.807693446841	164.907678872478	0.0999854256369872	stim01_sf1_pattern1_cont1_shape2.png	1	1	1	2	1	4	0	0	0	0	0	0	0	0	0	0	0	0	1	7
868.01611328125	0.0999980352498824	1777697	215	7	stim07_sf1_pattern2_cont2_shape2.png	1	47	0	165.307672772942	165.407670808192	0.0999980352498824	stim07_sf1_pattern2_cont2_shape2.png	1	2	2	2	1	1	0	0	0	0	0	0	0	0	0	0	0	0	1	7
868.51611328125	0.099997448753129	1778721	216	3	stim03_sf1_pattern1_cont2_shape2.png	1	48	0	165.807665881643	165.907663330396	0.099997448753129	stim03_sf1_pattern1_cont2_shape2.png	1	1	2	2	1	2	0	0	0	0	0	0	0	0	0	0	0	0	1	7
869.01611328125	0.0999936365442409	1779745	217	4	stim04_sf1_pattern2_cont1_shape1.png	1	49	0	166.307663095798	166.407656732343	0.0999936365442409	stim04_sf1_pattern2_cont1_shape1.png	1	2	1	1	1	3	0	0	0	0	0	0	0	0	0	0	0	0	1	7
869.51611328125	0.0999983284928021	1780769	218	1	stim01_sf1_pattern1_cont1_shape2.png	1	50	0	166.80765151255	166.907649841043	0.0999983284928021	stim01_sf1_pattern1_cont1_shape2.png	1	1	1	2	1	4	0	0	0	0	0	0	0	0	0	0	0	0	1	7
870.01611328125	0.099997448753129	1781793	219	13	stim13_sf2_pattern2_cont1_shape2.png	1	51	0	167.307643741511	167.407641190264	0.099997448753129	stim13_sf2_pattern2_cont1_shape2.png	2	2	1	2	1	3	0	0	0	0	0	0	0	0	0	0	0	0	1	7
870.515625	0.0999681240755308	1782816	220	14	stim14_sf2_pattern2_cont2_shape1.png	1	52	0	167.807638023198	167.907606147273	0.0999681240755308	stim14_sf2_pattern2_cont2_shape1.png	2	2	2	1	1	1	0	0	0	0	0	0	0	0	0	0	0	0	1	7
871.015625	0.0999783877086884	1783840	221	11	stim11_sf2_pattern1_cont2_shape2.png	1	53	0	168.307627906186	168.407606293895	0.0999783877086884	stim11_sf2_pattern1_cont2_shape2.png	2	1	2	2	1	2	0	0	0	0	0	0	0	0	0	0	0	0	1	7
871.515625	0.10001181784537	1784864	222	6	stim06_sf1_pattern2_cont2_shape1.png	1	54	0	168.807608405274	168.907620223119	0.10001181784537	stim06_sf1_pattern2_cont2_shape1.png	1	2	2	1	1	1	0	0	0	0	0	0	0	0	0	0	0	0	1	7
872.015625	0.099994516283914	1785888	223	0	stim00_sf1_pattern1_cont1_shape1.png	1	55	0	169.307616176313	169.407610692597	0.099994516283914	stim00_sf1_pattern1_cont1_shape1.png	1	1	1	1	1	4	0	0	0	0	0	0	0	0	0	0	0	0	1	7
872.515625	0.100030292393058	1786912	224	8	stim08_sf2_pattern1_cont1_shape1.png	1	56	0	169.807577907606	169.907608199999	0.100030292393058	stim08_sf2_pattern1_cont1_shape1.png	2	1	1	1	1	4	0	0	0	0	0	0	0	0	0	0	0	0	1	7
873.015625	0.099991583814699	1787936	225	9	stim09_sf2_pattern1_cont1_shape2.png	1	57	0	170.307599754495	170.407591338309	0.099991583814699	stim09_sf2_pattern1_cont1_shape2.png	2	1	1	2	1	4	0	0	0	0	0	0	0	0	0	0	0	0	1	7
873.515625	0.100000967711821	1788960	226	2	stim02_sf1_pattern1_cont2_shape1.png	1	58	0	170.807588171247	170.907589138958	0.100000967711821	stim02_sf1_pattern1_cont2_shape1.png	1	1	2	1	1	2	0	0	0	0	0	0	0	0	0	0	0	0	1	7
874.015625	0.0999968622600136	1789984	227	7	stim07_sf1_pattern2_cont2_shape2.png	1	59	0	171.307583332673	171.407580194933	0.0999968622600136	stim07_sf1_pattern2_cont2_shape2.png	1	2	2	2	1	1	0	0	0	0	0	0	0	0	0	0	0	0	1	7
874.515625	0.10000214070169	1791008	228	10	stim10_sf2_pattern1_cont2_shape1.png	1	60	0	171.807570576439	171.90757271714	0.10000214070169	stim10_sf2_pattern1_cont2_shape1.png	2	1	2	1	1	2	0	0	0	0	0	0	0	0	0	0	0	0	1	7
875.015625	0.099997448753129	1792032	229	5	stim05_sf1_pattern2_cont1_shape2.png	1	61	0	172.307564564879	172.407562013632	0.099997448753129	stim05_sf1_pattern2_cont1_shape2.png	1	2	1	2	1	3	0	0	0	0	0	0	0	0	0	0	0	0	1	7
875.515625	0.0999953960235871	1793056	230	15	stim15_sf2_pattern2_cont2_shape2.png	1	62	0	172.807543304487	172.90753870051	0.0999953960235871	stim15_sf2_pattern2_cont2_shape2.png	2	2	2	2	1	1	0	0	0	0	0	0	0	0	0	0	0	0	1	7
876.015625	0.100007125896809	1794080	231	12	stim12_sf2_pattern2_cont1_shape1.png	1	63	0	173.307529961756	173.407537087653	0.100007125896809	stim12_sf2_pattern2_cont1_shape1.png	2	2	1	1	1	3	0	0	0	0	0	0	0	0	0	0	0	0	1	7
876.515625	0.100018855766393	1795104	232	3	stim03_sf1_pattern1_cont2_shape2.png	1	64	0	173.807506941885	173.907525797651	0.100018855766393	stim03_sf1_pattern1_cont2_shape2.png	1	1	2	2	1	2	0	0	0	0	0	0	0	0	0	0	0	0	1	7
877.015625	0.0999995014790329	1796128	233	2	stim02_sf1_pattern1_cont2_shape1.png	1	65	0	174.307490959935	174.407490461414	0.0999995014790329	stim02_sf1_pattern1_cont2_shape1.png	1	1	2	1	1	2	0	0	0	0	0	0	0	0	0	0	0	0	1	7
877.515625	0.100004193431232	1797152	234	4	stim04_sf1_pattern2_cont1_shape1.png	1	66	0	174.807485534868	174.907489728299	0.100004193431232	stim04_sf1_pattern2_cont1_shape1.png	1	2	1	1	1	3	0	0	0	0	0	0	0	0	0	0	0	0	1	7
878.015625	0.0999962757632602	1798176	235	7	stim07_sf1_pattern2_cont2_shape2.png	1	67	0	175.307508847989	175.407505123752	0.0999962757632602	stim07_sf1_pattern2_cont2_shape2.png	1	2	2	2	1	1	0	0	0	0	0	0	0	0	0	0	0	0	1	7
878.515625	0.100027066677285	1799200	236	0	stim00_sf1_pattern1_cont1_shape1.png	1	68	0	175.807465594087	175.907492660765	0.100027066677285	stim00_sf1_pattern1_cont1_shape1.png	1	1	1	1	1	4	0	0	0	0	0	0	0	0	0	0	0	0	1	7
879.015625	0.0999883581025642	1800224	237	12	stim12_sf2_pattern2_cont1_shape1.png	1	69	0	176.30749301266	176.407481370763	0.0999883581025642	stim12_sf2_pattern2_cont1_shape1.png	2	2	1	1	1	3	0	0	0	0	0	0	0	0	0	0	0	0	1	7
879.515625	0.100026480184169	1801248	238	11	stim11_sf2_pattern1_cont2_shape2.png	1	70	0	176.807443014084	176.907469494268	0.100026480184169	stim11_sf2_pattern1_cont2_shape2.png	2	1	2	2	1	2	0	0	0	0	0	0	0	0	0	0	0	0	1	7
880.015625	0.100002433948248	1802272	239	9	stim09_sf2_pattern1_cont1_shape2.png	1	71	0	177.307472485387	177.407474919335	0.100002433948248	stim09_sf2_pattern1_cont1_shape2.png	2	1	1	2	1	4	0	0	0	0	0	0	0	0	0	0	0	0	1	7
880.515625	0.1000299991465	1803296	240	6	stim06_sf1_pattern2_cont2_shape1.png	1	72	0	177.807460022399	177.907490021546	0.1000299991465	stim06_sf1_pattern2_cont2_shape1.png	1	2	2	1	1	1	0	0	0	0	0	0	0	0	0	0	0	0	1	7
881.015625	0.0999995014790329	1804320	241	5	stim05_sf1_pattern2_cont1_shape2.png	1	73	0	178.307485388246	178.407484889725	0.0999995014790329	stim05_sf1_pattern2_cont1_shape2.png	1	2	1	2	1	3	0	0	0	0	0	0	0	0	0	0	0	0	1	7
881.515625	0.100024720704823	1805344	242	14	stim14_sf2_pattern2_cont2_shape1.png	1	74	0	178.807450345252	178.907475065957	0.100024720704823	stim14_sf2_pattern2_cont2_shape1.png	2	2	2	1	1	1	0	0	0	0	0	0	0	0	0	0	0	0	1	7
882.015625	0.0999965690134559	1806368	243	8	stim08_sf2_pattern1_cont1_shape1.png	1	75	0	179.307459582527	179.407456151541	0.0999965690134559	stim08_sf2_pattern1_cont1_shape1.png	2	1	1	1	1	4	0	0	0	0	0	0	0	0	0	0	0	0	1	7
882.515625	0.0999989149895555	1807392	244	15	stim15_sf2_pattern2_cont2_shape2.png	1	76	0	179.807454450707	179.907453365697	0.0999989149895555	stim15_sf2_pattern2_cont2_shape2.png	2	2	2	2	1	1	0	0	0	0	0	0	0	0	0	0	0	0	1	7
883.015625	0.099997448753129	1808416	245	1	stim01_sf1_pattern1_cont1_shape2.png	1	77	0	180.307445213435	180.407442662188	0.099997448753129	stim01_sf1_pattern1_cont1_shape2.png	1	1	1	2	1	4	0	0	0	0	0	0	0	0	0	0	0	0	1	7
883.515625	0.100040262783295	1809440	246	13	stim13_sf2_pattern2_cont1_shape2.png	1	78	0	180.807396974338	180.907437237121	0.100040262783295	stim13_sf2_pattern2_cont1_shape2.png	2	2	1	2	1	3	0	0	0	0	0	0	0	0	0	0	0	0	1	7
884.015625	0.0999150464049308	1810464	247	10	stim10_sf2_pattern1_cont2_shape1.png	1	79	0	181.307513246691	181.407428293096	0.0999150464049308	stim10_sf2_pattern1_cont2_shape1.png	2	1	2	1	1	2	0	0	0	0	0	0	0	0	0	0	0	0	1	7
884.515625	0.0999552212160779	1811488	248	15	stim15_sf2_pattern2_cont2_shape2.png	1	80	0	181.807420434081	181.907375655297	0.0999552212160779	stim15_sf2_pattern2_cont2_shape2.png	2	2	2	2	1	1	0	0	0	0	0	0	0	0	0	0	0	0	1	7
885.015625	0.099997448753129	1812512	249	6	stim06_sf1_pattern2_cont2_shape1.png	1	81	0	182.307415888754	182.407413337507	0.099997448753129	stim06_sf1_pattern2_cont2_shape1.png	1	2	2	1	1	1	0	0	0	0	0	0	0	0	0	0	0	0	1	7
885.515625	0.0999558077091933	1813536	250	14	stim14_sf2_pattern2_cont2_shape1.png	1	82	0	182.807406064989	182.907361872698	0.0999558077091933	stim14_sf2_pattern2_cont2_shape1.png	2	2	2	1	1	1	0	0	0	0	0	0	0	0	0	0	0	0	1	7
886.015625	0.0999977419996867	1814560	251	13	stim13_sf2_pattern2_cont1_shape2.png	1	83	0	183.307400053429	183.407397795429	0.0999977419996867	stim13_sf2_pattern2_cont1_shape2.png	2	2	1	2	1	3	0	0	0	0	0	0	0	0	0	0	0	0	1	7
886.515625	0.0999739890103228	1815584	252	0	stim00_sf1_pattern1_cont1_shape1.png	1	84	0	183.807392868883	183.907366857893	0.0999739890103228	stim00_sf1_pattern1_cont1_shape1.png	1	1	1	1	1	4	0	0	0	0	0	0	0	0	0	0	0	0	1	7
887.015625	0.100012990835239	1816608	253	8	stim08_sf2_pattern1_cont1_shape1.png	1	85	0	184.307369849008	184.407382839843	0.100012990835239	stim08_sf2_pattern1_cont1_shape1.png	2	1	1	1	1	4	0	0	0	0	0	0	0	0	0	0	0	0	1	7
887.515625	0.0999912905717792	1817632	254	3	stim03_sf1_pattern1_cont2_shape2.png	1	86	0	184.807360904982	184.907352195554	0.0999912905717792	stim03_sf1_pattern1_cont2_shape2.png	1	1	2	2	1	2	0	0	0	0	0	0	0	0	0	0	0	0	1	7
888.01513671875	0.0999962757668982	1818655	255	4	stim04_sf1_pattern2_cont1_shape1.png	1	87	0	185.307371901737	185.407368177504	0.0999962757668982	stim04_sf1_pattern2_cont1_shape1.png	1	2	1	1	1	3	0	0	0	0	0	0	0	0	0	0	0	0	1	7
888.51513671875	0.0999930500511255	1819679	256	1	stim01_sf1_pattern1_cont1_shape2.png	1	88	0	185.807349468356	185.907342518407	0.0999930500511255	stim01_sf1_pattern1_cont1_shape2.png	1	1	1	2	1	4	0	0	0	0	0	0	0	0	0	0	0	0	1	7
889.01513671875	0.10001181784537	1820703	257	5	stim05_sf1_pattern2_cont1_shape2.png	1	89	0	186.307335832382	186.407347650227	0.10001181784537	stim05_sf1_pattern2_cont1_shape2.png	1	2	1	2	1	3	0	0	0	0	0	0	0	0	0	0	0	0	1	7
889.51513671875	0.0999751619965537	1821727	258	9	stim09_sf2_pattern1_cont1_shape2.png	1	90	0	186.80734829537	186.907323457366	0.0999751619965537	stim09_sf2_pattern1_cont1_shape2.png	2	1	1	2	1	4	0	0	0	0	0	0	0	0	0	0	0	0	1	7
890.01513671875	0.100013284078159	1822751	259	7	stim07_sf1_pattern2_cont2_shape2.png	1	91	0	187.30732058355	187.407333867628	0.100013284078159	stim07_sf1_pattern2_cont2_shape2.png	1	2	2	2	1	1	0	0	0	0	0	0	0	0	0	0	0	0	1	7
890.51513671875	0.0999889445956796	1823775	260	12	stim12_sf2_pattern2_cont1_shape1.png	1	92	0	187.807327474849	187.907316419445	0.0999889445956796	stim12_sf2_pattern2_cont1_shape1.png	2	2	1	1	1	3	0	0	0	0	0	0	0	0	0	0	0	0	1	7
891.01513671875	0.099991583814699	1824799	261	2	stim02_sf1_pattern1_cont2_shape1.png	1	93	0	188.307301522509	188.407293106324	0.099991583814699	stim02_sf1_pattern1_cont2_shape1.png	1	1	2	1	1	2	0	0	0	0	0	0	0	0	0	0	0	0	1	7
891.51513671875	0.0999695903083193	1825823	262	10	stim10_sf2_pattern1_cont2_shape1.png	1	94	0	188.807306361079	188.907275951387	0.0999695903083193	stim10_sf2_pattern1_cont2_shape1.png	2	1	2	1	1	2	0	0	0	0	0	0	0	0	0	0	0	0	1	7
892.01513671875	0.0999965690098179	1826847	263	11	stim11_sf2_pattern1_cont2_shape2.png	1	95	0	189.3072657464	189.40726231541	0.0999965690098179	stim11_sf2_pattern1_cont2_shape2.png	2	1	2	2	1	2	0	0	0	0	0	0	0	0	0	0	0	0	1	7
892.51513671875	0.0999927568045678	1827871	264	3	stim03_sf1_pattern1_cont2_shape2.png	1	96	0	189.807279675621	189.907272432425	0.0999927568045678	stim03_sf1_pattern1_cont2_shape2.png	1	1	2	2	1	2	0	0	0	0	0	0	0	0	0	0	0	0	1	7
893.01513671875	0.0999795606985572	1828895	265	6	stim06_sf1_pattern2_cont2_shape1.png	1	97	0	190.307296830561	190.407276391259	0.0999795606985572	stim06_sf1_pattern2_cont2_shape1.png	1	2	2	1	1	1	0	0	0	0	0	0	0	0	0	0	0	0	1	7
893.51513671875	0.0999871851126954	1829919	266	0	stim00_sf1_pattern1_cont1_shape1.png	1	98	0	190.807272637699	190.907259822812	0.0999871851126954	stim00_sf1_pattern1_cont1_shape1.png	1	1	1	1	1	4	0	0	0	0	0	0	0	0	0	0	0	0	1	7
894.01513671875	0.100004779924348	1830943	267	12	stim12_sf2_pattern2_cont1_shape1.png	1	99	0	191.307253136787	191.407257916711	0.100004779924348	stim12_sf2_pattern2_cont1_shape1.png	2	2	1	1	1	3	0	0	0	0	0	0	0	0	0	0	0	0	1	7
894.51513671875	0.0999909973252215	1831967	268	9	stim09_sf2_pattern1_cont1_shape2.png	1	100	0	191.807256215878	191.907247213203	0.0999909973252215	stim09_sf2_pattern1_cont1_shape2.png	2	1	1	2	1	4	0	0	0	0	0	0	0	0	0	0	0	0	1	7
895.01513671875	0.0999915838183369	1832991	269	4	stim04_sf1_pattern2_cont1_shape1.png	1	101	0	192.307250497564	192.407242081383	0.0999915838183369	stim04_sf1_pattern2_cont1_shape1.png	1	2	1	1	1	3	0	0	0	0	0	0	0	0	0	0	0	0	1	7
895.51513671875	0.100003313691559	1834015	270	7	stim07_sf1_pattern2_cont2_shape2.png	1	102	0	192.807233929121	192.907237242813	0.100003313691559	stim07_sf1_pattern2_cont2_shape2.png	1	2	2	2	1	1	0	0	0	0	0	0	0	0	0	0	0	0	1	7
896.01513671875	0.100009471869271	1835039	271	10	stim10_sf2_pattern1_cont2_shape1.png	1	103	0	193.307241993411	193.40725146528	0.100009471869271	stim10_sf2_pattern1_cont2_shape1.png	2	1	2	1	1	2	0	0	0	0	0	0	0	0	0	0	0	0	1	7
896.51513671875	0.0999517022537475	1836063	272	2	stim02_sf1_pattern1_cont2_shape1.png	1	104	0	193.807243899511	193.907195601765	0.0999517022537475	stim02_sf1_pattern1_cont2_shape1.png	1	1	2	1	1	2	0	0	0	0	0	0	0	0	0	0	0	0	1	7
897.01513671875	0.0999871851163334	1837087	273	13	stim13_sf2_pattern2_cont1_shape2.png	1	105	0	194.307243166397	194.407230351513	0.0999871851163334	stim13_sf2_pattern2_cont1_shape2.png	2	2	1	2	1	3	0	0	0	0	0	0	0	0	0	0	0	0	1	7
897.51513671875	0.0999983284928021	1838111	274	1	stim01_sf1_pattern1_cont1_shape2.png	1	106	0	194.807224545224	194.907222873717	0.0999983284928021	stim01_sf1_pattern1_cont1_shape2.png	1	1	1	2	1	4	0	0	0	0	0	0	0	0	0	0	0	0	1	7
898.01513671875	0.0999962757668982	1839135	275	5	stim05_sf1_pattern2_cont1_shape2.png	1	107	0	195.307225278342	195.407221554109	0.0999962757668982	stim05_sf1_pattern2_cont1_shape2.png	1	2	1	2	1	3	0	0	0	0	0	0	0	0	0	0	0	0	1	7
898.51513671875	0.0999959825203405	1840159	276	11	stim11_sf2_pattern1_cont2_shape2.png	1	108	0	195.807209296392	195.907205278912	0.0999959825203405	stim11_sf2_pattern1_cont2_shape2.png	2	1	2	2	1	2	0	0	0	0	0	0	0	0	0	0	0	0	1	7
899.01513671875	0.0999930500511255	1841183	277	15	stim15_sf2_pattern2_cont2_shape2.png	1	109	0	196.307207097041	196.407200147092	0.0999930500511255	stim15_sf2_pattern2_cont2_shape2.png	2	2	2	2	1	1	0	0	0	0	0	0	0	0	0	0	0	0	1	7
899.51513671875	0.0999933432976832	1842207	278	8	stim08_sf2_pattern1_cont1_shape1.png	1	110	0	196.8071949273	196.907188270598	0.0999933432976832	stim08_sf2_pattern1_cont1_shape1.png	2	1	1	1	1	4	0	0	0	0	0	0	0	0	0	0	0	0	1	7
900.01513671875	0.100000674465264	1843231	279	14	stim14_sf2_pattern2_cont2_shape1.png	1	111	0	197.307182464312	197.407183138777	0.100000674465264	stim14_sf2_pattern2_cont2_shape1.png	2	2	2	1	1	1	0	0	0	0	0	0	0	0	0	0	0	0	1	7
900.51513671875	0.099994516283914	1844255	280	5	stim05_sf1_pattern2_cont1_shape2.png	1	112	0	197.807177918985	197.907172435269	0.099994516283914	stim05_sf1_pattern2_cont1_shape2.png	1	2	1	2	1	3	0	0	0	0	0	0	0	0	0	0	0	0	1	7
901.01513671875	0.0999953960235871	1845279	281	8	stim08_sf2_pattern1_cont1_shape1.png	1	113	0	198.307173373661	198.407168769685	0.0999953960235871	stim08_sf2_pattern1_cont1_shape1.png	2	1	1	1	1	4	0	0	0	0	0	0	0	0	0	0	0	0	1	7
901.51513671875	0.0999962757668982	1846303	282	1	stim01_sf1_pattern1_cont1_shape2.png	1	114	0	198.8071629634	198.907159239167	0.0999962757668982	stim01_sf1_pattern1_cont1_shape2.png	1	1	1	2	1	4	0	0	0	0	0	0	0	0	0	0	0	0	1	7
902.01513671875	0.0999948095341097	1847327	283	7	stim07_sf1_pattern2_cont2_shape2.png	1	115	0	199.307158418073	199.407153227607	0.0999948095341097	stim07_sf1_pattern2_cont2_shape2.png	1	2	2	2	1	1	0	0	0	0	0	0	0	0	0	0	0	0	1	7
902.51513671875	0.0999701768014347	1848351	284	3	stim03_sf1_pattern1_cont2_shape2.png	1	116	0	199.807148007814	199.907118184616	0.0999701768014347	stim03_sf1_pattern1_cont2_shape2.png	1	1	2	2	1	2	0	0	0	0	0	0	0	0	0	0	0	0	1	7
903.01513671875	0.099997448753129	1849375	285	15	stim15_sf2_pattern2_cont2_shape2.png	1	117	0	200.307140236771	200.407137685525	0.099997448753129	stim15_sf2_pattern2_cont2_shape2.png	2	2	2	2	1	1	0	0	0	0	0	0	0	0	0	0	0	0	1	7
903.51513671875	0.099994516283914	1850399	286	0	stim00_sf1_pattern1_cont1_shape1.png	1	118	0	200.807134811708	200.907129327992	0.099994516283914	stim00_sf1_pattern1_cont1_shape1.png	1	1	1	1	1	4	0	0	0	0	0	0	0	0	0	0	0	0	1	7
904.01513671875	0.0999951027770294	1851423	287	12	stim12_sf2_pattern2_cont1_shape1.png	1	119	0	201.307127627162	201.407122729939	0.0999951027770294	stim12_sf2_pattern2_cont1_shape1.png	2	2	1	1	1	3	0	0	0	0	0	0	0	0	0	0	0	0	1	7
904.51513671875	0.0999942230373563	1852447	288	13	stim13_sf2_pattern2_cont1_shape2.png	1	120	0	201.807117510147	201.907111733184	0.0999942230373563	stim13_sf2_pattern2_cont1_shape2.png	2	2	1	2	1	3	0	0	0	0	0	0	0	0	0	0	0	0	1	7
905.01513671875	0.100012404338486	1853471	289	4	stim04_sf1_pattern2_cont1_shape1.png	1	121	0	202.307092730793	202.407105135131	0.100012404338486	stim04_sf1_pattern2_cont1_shape1.png	1	2	1	1	1	3	0	0	0	0	0	0	0	0	0	0	0	0	1	7
905.5146484375	0.0999868918697757	1854494	290	11	stim11_sf2_pattern1_cont2_shape2.png	1	122	0	202.807108712743	202.907095604613	0.0999868918697757	stim11_sf2_pattern1_cont2_shape2.png	2	1	2	2	1	2	0	0	0	0	0	0	0	0	0	0	0	0	1	7
906.0146484375	0.0999810269313457	1855518	291	10	stim10_sf2_pattern1_cont2_shape1.png	1	123	0	203.30709126456	203.407072291491	0.0999810269313457	stim10_sf2_pattern1_cont2_shape1.png	2	1	2	1	1	2	0	0	0	0	0	0	0	0	0	0	0	0	1	7
906.5146484375	0.100003606934479	1856542	292	2	stim02_sf1_pattern1_cont2_shape1.png	1	124	0	203.807043905203	203.907047512137	0.100003606934479	stim02_sf1_pattern1_cont2_shape1.png	1	1	2	1	1	2	0	0	0	0	0	0	0	0	0	0	0	0	1	7
907.0146484375	0.100017389533605	1857566	293	9	stim09_sf2_pattern1_cont1_shape2.png	1	125	0	204.307040532865	204.407057922399	0.100017389533605	stim09_sf2_pattern1_cont1_shape2.png	2	1	1	2	1	4	0	0	0	0	0	0	0	0	0	0	0	0	1	7
907.5146484375	0.099997448753129	1858590	294	14	stim14_sf2_pattern2_cont2_shape1.png	1	126	0	204.807026017148	204.907023465901	0.099997448753129	stim14_sf2_pattern2_cont2_shape1.png	2	2	2	1	1	1	0	0	0	0	0	0	0	0	0	0	0	0	1	7
908.0146484375	0.100021788235608	1859614	295	6	stim06_sf1_pattern2_cont2_shape1.png	1	127	0	205.30701531364	205.407037101875	0.100021788235608	stim06_sf1_pattern2_cont2_shape1.png	1	2	2	1	1	1	0	0	0	0	0	0	0	0	0	0	0	0	1	7
908.5146484375	0.100017682780162	1860638	296	12	stim12_sf2_pattern2_cont1_shape1.png	1	128	0	205.807010768316	205.907028451096	0.100017682780162	stim12_sf2_pattern2_cont1_shape1.png	2	2	1	1	1	3	0	0	0	0	0	0	0	0	0	0	0	0	1	7
909.0146484375	0.100020615249377	1861662	297	3	stim03_sf1_pattern1_cont2_shape2.png	1	129	0	206.30700358377	206.407024199019	0.100020615249377	stim03_sf1_pattern1_cont2_shape2.png	1	1	2	2	1	2	0	0	0	0	0	0	0	0	0	0	0	0	1	7
909.5146484375	0.0999924635580101	1862686	298	2	stim02_sf1_pattern1_cont2_shape1.png	1	130	0	206.807025430655	206.907017894213	0.0999924635580101	stim02_sf1_pattern1_cont2_shape1.png	1	1	2	1	1	2	0	0	0	0	0	0	0	0	0	0	0	0	1	7
910.0146484375	0.100022081482166	1863710	299	13	stim13_sf2_pattern2_cont1_shape2.png	1	131	0	207.306995959352	207.407018040834	0.100022081482166	stim13_sf2_pattern2_cont1_shape2.png	2	2	1	2	1	3	0	0	0	0	0	0	0	0	0	0	0	0	1	7
910.5146484375	0.0999962757668982	1864734	300	15	stim15_sf2_pattern2_cont2_shape2.png	1	132	0	207.807013994028	207.907010269795	0.0999962757668982	stim15_sf2_pattern2_cont2_shape2.png	2	2	2	2	1	1	0	0	0	0	0	0	0	0	0	0	0	0	1	7
911.0146484375	0.100016216547374	1865758	301	6	stim06_sf1_pattern2_cont2_shape1.png	1	133	0	208.30700241078	208.407018627327	0.100016216547374	stim06_sf1_pattern2_cont2_shape1.png	1	2	2	1	1	1	0	0	0	0	0	0	0	0	0	0	0	0	1	7
911.5146484375	0.0999962757632602	1866782	302	4	stim04_sf1_pattern2_cont1_shape1.png	1	134	1	208.80701956572	208.907015841483	0.0999962757632602	stim04_sf1_pattern2_cont1_shape1.png	1	2	1	1	1	3	0	0	0	0	0	0	0	0	0	0	0	0	1	7
912.0146484375	0.0999953960235871	1867806	303	4	stim04_sf1_pattern2_cont1_shape1.png	1	135	1	209.307008568965	209.407003964989	0.0999953960235871	stim04_sf1_pattern2_cont1_shape1.png	1	2	1	1	1	3	0	0	0	0	0	0	0	0	0	0	0	0	1	7
912.5146484375	0.0999983284928021	1868830	304	7	stim07_sf1_pattern2_cont2_shape2.png	1	136	2	209.806994053248	209.906992381741	0.0999983284928021	stim07_sf1_pattern2_cont2_shape2.png	1	2	2	2	1	1	0	0	0	0	0	0	0	0	0	0	0	0	1	7
913.0146484375	0.10000829888304	1869854	305	2	stim02_sf1_pattern1_cont2_shape1.png	1	137	2	210.306966927921	210.406975226804	0.10000829888304	stim02_sf1_pattern1_cont2_shape1.png	1	1	2	1	1	2	0	0	0	0	0	0	0	0	0	0	0	0	1	7
913.5146484375	0.0999857188835449	1870878	306	11	stim11_sf2_pattern1_cont2_shape2.png	1	138	0	210.806990534285	210.906976253169	0.0999857188835449	stim11_sf2_pattern1_cont2_shape2.png	2	1	2	2	1	2	0	0	0	0	0	0	0	0	0	0	0	0	1	7
914.0146484375	0.100007712393563	1871902	307	14	stim14_sf2_pattern2_cont2_shape1.png	1	139	0	211.306934084278	211.406941796671	0.100007712393563	stim14_sf2_pattern2_cont2_shape1.png	2	2	2	1	1	1	0	0	0	0	0	0	0	0	0	0	0	0	1	7
914.5146484375	0.099997448753129	1872926	308	7	stim07_sf1_pattern2_cont2_shape2.png	1	140	0	211.80696355558	211.906961004333	0.099997448753129	stim07_sf1_pattern2_cont2_shape2.png	1	2	2	2	1	1	0	0	0	0	0	0	0	0	0	0	0	0	1	7
915.0146484375	0.10000214070169	1873950	309	4	stim04_sf1_pattern2_cont1_shape1.png	1	141	0	212.306951972332	212.406954113034	0.10000214070169	stim04_sf1_pattern2_cont1_shape1.png	1	2	1	1	1	3	0	0	0	0	0	0	0	0	0	0	0	0	1	7
915.5146484375	0.0999977419996867	1874974	310	9	stim09_sf2_pattern1_cont1_shape2.png	1	142	0	212.806946840516	212.906944582515	0.0999977419996867	stim09_sf2_pattern1_cont1_shape2.png	2	1	1	2	1	4	0	0	0	0	0	0	0	0	0	0	0	0	1	7
916.0146484375	0.100029999150138	1875998	311	0	stim00_sf1_pattern1_cont1_shape1.png	1	143	0	213.306906812326	213.406936811476	0.100029999150138	stim00_sf1_pattern1_cont1_shape1.png	1	1	1	1	1	4	0	0	0	0	0	0	0	0	0	0	0	0	1	7
916.5146484375	0.0999936365442409	1877022	312	5	stim05_sf1_pattern2_cont1_shape2.png	1	144	0	213.80693159168	213.906925228224	0.0999936365442409	stim05_sf1_pattern2_cont1_shape2.png	1	2	1	2	1	3	0	0	0	0	0	0	0	0	0	0	0	0	1	7
917.0146484375	0.100026480184169	1878046	313	8	stim08_sf2_pattern1_cont1_shape1.png	1	145	0	214.306895962196	214.40692244238	0.100026480184169	stim08_sf2_pattern1_cont1_shape1.png	2	1	1	1	1	4	0	0	0	0	0	0	0	0	0	0	0	0	1	7
917.5146484375	0.0999965690134559	1879070	314	10	stim10_sf2_pattern1_cont2_shape1.png	1	146	0	214.806915756355	214.906912325368	0.0999965690134559	stim10_sf2_pattern1_cont2_shape1.png	2	1	2	1	1	2	0	0	0	0	0	0	0	0	0	0	0	0	1	7
918.0146484375	0.100025893691054	1880094	315	1	stim01_sf1_pattern1_cont1_shape2.png	1	147	0	215.306880713364	215.406906607055	0.100025893691054	stim01_sf1_pattern1_cont1_shape2.png	1	1	1	2	1	4	0	0	0	0	0	0	0	0	0	0	0	0	1	7
918.5146484375	0.100018269276916	1881118	316	0	stim00_sf1_pattern1_cont1_shape1.png	1	148	0	215.806879980246	215.906898249523	0.100018269276916	stim00_sf1_pattern1_cont1_shape1.png	1	1	1	1	1	4	0	0	0	0	0	0	0	0	0	0	0	0	1	7
919.0146484375	0.100025893691054	1882142	317	14	stim14_sf2_pattern2_cont2_shape1.png	1	149	0	216.306868690244	216.406894583935	0.100025893691054	stim14_sf2_pattern2_cont2_shape1.png	2	2	2	1	1	1	0	0	0	0	0	0	0	0	0	0	0	0	1	7
919.5146484375	0.099994516283914	1883166	318	13	stim13_sf2_pattern2_cont1_shape2.png	1	150	0	216.806888484403	216.906883000687	0.099994516283914	stim13_sf2_pattern2_cont1_shape2.png	2	2	1	2	1	3	0	0	0	0	0	0	0	0	0	0	0	0	1	7
920.0146484375	0.0999965690134559	1884190	319	12	stim12_sf2_pattern2_cont1_shape1.png	1	151	0	217.306880713364	217.406877282378	0.0999965690134559	stim12_sf2_pattern2_cont1_shape1.png	2	2	1	1	1	3	0	0	0	0	0	0	0	0	0	0	0	0	1	7
920.5146484375	0.100000674465264	1885214	320	7	stim07_sf1_pattern2_cont2_shape2.png	1	152	0	217.806869130116	217.906869804581	0.100000674465264	stim07_sf1_pattern2_cont2_shape2.png	1	2	2	2	1	1	0	0	0	0	0	0	0	0	0	0	0	0	1	7
921.0146484375	0.099983666150365	1886238	321	6	stim06_sf1_pattern2_cont2_shape1.png	1	153	0	218.306856667128	218.406840333279	0.099983666150365	stim06_sf1_pattern2_cont2_shape1.png	1	2	2	1	1	1	0	0	0	0	0	0	0	0	0	0	0	0	1	7
921.5146484375	0.0999690038152039	1887262	322	8	stim08_sf2_pattern1_cont1_shape1.png	1	154	0	218.806841858164	218.906810861979	0.0999690038152039	stim08_sf2_pattern1_cont1_shape1.png	2	1	1	1	1	4	0	0	0	0	0	0	0	0	0	0	0	0	1	7
922.0146484375	0.0999543414727668	1888286	323	10	stim10_sf2_pattern1_cont2_shape1.png	1	155	0	219.306847576478	219.40680191795	0.0999543414727668	stim10_sf2_pattern1_cont2_shape1.png	2	1	2	1	1	2	0	0	0	0	0	0	0	0	0	0	0	0	1	7
922.5146484375	0.0999675375787774	1889310	324	3	stim03_sf1_pattern1_cont2_shape2.png	1	156	0	219.80684596362	219.906813501198	0.0999675375787774	stim03_sf1_pattern1_cont2_shape2.png	1	1	2	2	1	2	0	0	0	0	0	0	0	0	0	0	0	0	1	7
923.01416015625	0.0999481832914171	1890333	325	15	stim15_sf2_pattern2_cont2_shape2.png	1	157	0	220.30683907232	220.406787255612	0.0999481832914171	stim15_sf2_pattern2_cont2_shape2.png	2	2	2	2	1	1	0	0	0	0	0	0	0	0	0	0	0	0	1	7
923.51416015625	0.0999980352462444	1891357	326	5	stim05_sf1_pattern2_cont1_shape2.png	1	158	0	220.80677998309	220.906778018336	0.0999980352462444	stim05_sf1_pattern2_cont1_shape2.png	1	2	1	2	1	3	0	0	0	0	0	0	0	0	0	0	0	0	1	7
924.01416015625	0.0999734025172074	1892381	327	1	stim01_sf1_pattern1_cont1_shape2.png	1	159	0	221.306800656988	221.406774059506	0.0999734025172074	stim01_sf1_pattern1_cont1_shape2.png	1	1	1	2	1	4	0	0	0	0	0	0	0	0	0	0	0	0	1	7
924.51416015625	0.100011524598813	1893405	328	4	stim04_sf1_pattern2_cont1_shape1.png	1	160	0	221.806777343871	221.906788868469	0.100011524598813	stim04_sf1_pattern2_cont1_shape1.png	1	2	1	1	1	3	0	0	0	0	0	0	0	0	0	0	0	0	1	7
925.01416015625	0.0999810269313457	1894429	329	11	stim11_sf2_pattern1_cont2_shape2.png	1	161	0	222.30677426478	222.406755291711	0.0999810269313457	stim11_sf2_pattern1_cont2_shape2.png	2	1	2	2	1	2	0	0	0	0	0	0	0	0	0	0	0	0	1	7
925.51416015625	0.099994516283914	1895453	330	9	stim09_sf2_pattern1_cont1_shape2.png	1	162	0	222.806782915559	222.906777431843	0.099994516283914	stim09_sf2_pattern1_cont1_shape2.png	2	1	1	2	1	4	0	0	0	0	0	0	0	0	0	0	0	0	1	7
926.01416015625	0.0994798681676912	1896477	331	2	stim02_sf1_pattern1_cont2_shape1.png	1	163	0	223.307285100687	223.406764968855	0.0994798681676912	stim02_sf1_pattern1_cont2_shape1.png	1	1	2	1	1	2	0	0	0	0	0	0	0	0	0	0	0	0	1	7
942.14697265625	0.0999889445956796	1929517	332	12	stim12_sf2_pattern2_cont1_shape1.png	2	0	0	239.439877809928	239.539866754523	0.0999889445956796	stim12_sf2_pattern2_cont1_shape1.png	2	2	1	1	1	3	0	0	0	0	0	0	0	0	0	0	0	0	1	7
942.64697265625	0.0999871851163334	1930541	333	2	stim02_sf1_pattern1_cont2_shape1.png	2	1	0	239.939826638361	240.039813823478	0.0999871851163334	stim02_sf1_pattern1_cont2_shape1.png	1	1	2	1	1	2	0	0	0	0	0	0	0	0	0	0	0	0	1	7
943.14697265625	0.100021494989051	1931565	334	1	stim01_sf1_pattern1_cont1_shape2.png	2	2	0	240.439811242904	240.539832737893	0.100021494989051	stim01_sf1_pattern1_cont1_shape2.png	1	1	1	2	1	4	0	0	0	0	0	0	0	0	0	0	0	0	1	7
943.64697265625	0.0999965690134559	1932589	335	7	stim07_sf1_pattern2_cont2_shape2.png	2	3	0	240.939802885372	241.039799454386	0.0999965690134559	stim07_sf1_pattern2_cont2_shape2.png	1	2	2	2	1	1	0	0	0	0	0	0	0	0	0	0	0	0	1	7
944.14697265625	0.0999956892737828	1933613	336	6	stim06_sf1_pattern2_cont2_shape1.png	2	4	0	241.439797167059	241.539792856332	0.0999956892737828	stim06_sf1_pattern2_cont2_shape1.png	1	2	2	1	1	1	0	0	0	0	0	0	0	0	0	0	0	0	1	7
944.64697265625	0.100003900181036	1934637	337	14	stim14_sf2_pattern2_cont2_shape1.png	2	5	0	241.939787343294	242.039791243475	0.100003900181036	stim14_sf2_pattern2_cont2_shape1.png	2	2	2	1	1	1	0	0	0	0	0	0	0	0	0	0	0	0	1	7
945.14697265625	0.0999980352462444	1935661	338	8	stim08_sf2_pattern1_cont1_shape1.png	2	6	0	242.439808017192	242.539806052439	0.0999980352462444	stim08_sf2_pattern1_cont1_shape1.png	2	1	1	1	1	4	0	0	0	0	0	0	0	0	0	0	0	0	1	7
945.64697265625	0.0999956892701448	1936685	339	3	stim03_sf1_pattern1_cont2_shape2.png	2	7	0	242.939805524595	243.039801213865	0.0999956892701448	stim03_sf1_pattern1_cont2_shape2.png	1	1	2	2	1	2	0	0	0	0	0	0	0	0	0	0	0	0	1	7
946.14697265625	0.0999927568045678	1937709	340	15	stim15_sf2_pattern2_cont2_shape2.png	2	8	0	243.439791302124	243.539784058928	0.0999927568045678	stim15_sf2_pattern2_cont2_shape2.png	2	2	2	2	1	1	0	0	0	0	0	0	0	0	0	0	0	0	1	7
946.64697265625	0.0999892378422373	1938733	341	5	stim05_sf1_pattern2_cont1_shape2.png	2	9	0	243.939789102773	244.039778340615	0.0999892378422373	stim05_sf1_pattern2_cont1_shape2.png	1	2	1	2	1	3	0	0	0	0	0	0	0	0	0	0	0	0	1	7
947.14697265625	0.100003606934479	1939757	342	13	stim13_sf2_pattern2_cont1_shape2.png	2	10	0	244.439798926542	244.539802533476	0.100003606934479	stim13_sf2_pattern2_cont1_shape2.png	2	2	1	2	1	3	0	0	0	0	0	0	0	0	0	0	0	0	1	7
947.64697265625	0.0999951027770294	1940781	343	11	stim11_sf2_pattern1_cont2_shape2.png	2	11	0	244.939792621735	245.039787724512	0.0999951027770294	stim11_sf2_pattern1_cont2_shape2.png	2	1	2	2	1	2	0	0	0	0	0	0	0	0	0	0	0	0	1	7
948.14697265625	0.0999930500511255	1941805	344	0	stim00_sf1_pattern1_cont1_shape1.png	2	12	0	245.439781918227	245.539774968278	0.0999930500511255	stim00_sf1_pattern1_cont1_shape1.png	1	1	1	1	1	4	0	0	0	0	0	0	0	0	0	0	0	0	1	7
948.64697265625	0.0999783877123264	1942829	345	4	stim04_sf1_pattern2_cont1_shape1.png	2	13	0	245.939769748486	246.039748136198	0.0999783877123264	stim04_sf1_pattern2_cont1_shape1.png	1	2	1	1	1	3	0	0	0	0	0	0	0	0	0	0	0	0	1	7
949.14697265625	0.0999948095304717	1943853	346	10	stim10_sf2_pattern1_cont2_shape1.png	2	14	0	246.439777226278	246.539772035809	0.0999948095304717	stim10_sf2_pattern1_cont2_shape1.png	2	1	2	1	1	2	0	0	0	0	0	0	0	0	0	0	0	0	1	7
949.64697265625	0.0999716430342232	1944877	347	9	stim09_sf2_pattern1_cont1_shape2.png	2	15	0	246.939755086147	247.039726729181	0.0999716430342232	stim09_sf2_pattern1_cont1_shape2.png	2	1	1	2	1	4	0	0	0	0	0	0	0	0	0	0	0	0	1	7
950.14697265625	0.099953168486536	1945901	348	6	stim06_sf1_pattern2_cont2_shape1.png	2	16	0	247.43974966108	247.539702829567	0.099953168486536	stim06_sf1_pattern2_cont2_shape1.png	1	2	2	1	1	1	0	0	0	0	0	0	0	0	0	0	0	0	1	7
950.64697265625	0.100041435769526	1946925	349	5	stim05_sf1_pattern2_cont1_shape2.png	2	17	0	247.939678255487	248.039719691256	0.100041435769526	stim05_sf1_pattern2_cont1_shape2.png	1	2	1	2	1	3	0	0	0	0	0	0	0	0	0	0	0	0	1	7
951.14697265625	0.0999871851163334	1947949	350	0	stim00_sf1_pattern1_cont1_shape1.png	2	18	0	248.439736758221	248.539723943337	0.0999871851163334	stim00_sf1_pattern1_cont1_shape1.png	1	1	1	1	1	4	0	0	0	0	0	0	0	0	0	0	0	0	1	7
951.64697265625	0.099977801219211	1948973	351	7	stim07_sf1_pattern2_cont2_shape2.png	2	19	0	248.939725468219	249.039703269438	0.099977801219211	stim07_sf1_pattern2_cont2_shape2.png	1	2	2	2	1	1	0	0	0	0	0	0	0	0	0	0	0	0	1	7
952.14697265625	0.099994516287552	1949997	352	3	stim03_sf1_pattern1_cont2_shape2.png	2	20	0	249.439719456659	249.539713972947	0.099994516287552	stim03_sf1_pattern1_cont2_shape2.png	1	1	2	2	1	2	0	0	0	0	0	0	0	0	0	0	0	0	1	7
952.64697265625	0.100021788239246	1951021	353	10	stim10_sf2_pattern1_cont2_shape1.png	2	21	0	249.939686173147	250.039707961387	0.100021788239246	stim10_sf2_pattern1_cont2_shape1.png	2	1	2	1	1	2	0	0	0	0	0	0	0	0	0	0	0	0	1	7
953.14697265625	0.0999933432976832	1952045	354	1	stim01_sf1_pattern1_cont1_shape2.png	2	22	0	250.43970479432	250.539698137618	0.0999933432976832	stim01_sf1_pattern1_cont1_shape2.png	1	1	1	2	1	4	0	0	0	0	0	0	0	0	0	0	0	0	1	7
953.64697265625	0.100000381222344	1953069	355	2	stim02_sf1_pattern1_cont2_shape1.png	2	23	0	250.939675909511	251.039676290733	0.100000381222344	stim02_sf1_pattern1_cont2_shape1.png	1	1	2	1	1	2	0	0	0	0	0	0	0	0	0	0	0	0	1	7
954.14697265625	0.100017976030358	1954093	356	15	stim15_sf2_pattern2_cont2_shape2.png	2	24	0	251.439669311458	251.539687287488	0.100017976030358	stim15_sf2_pattern2_cont2_shape2.png	2	2	2	2	1	1	0	0	0	0	0	0	0	0	0	0	0	0	1	7
954.64697265625	0.0999953960272251	1955117	357	12	stim12_sf2_pattern2_cont1_shape1.png	2	25	0	251.939662420158	252.039657816185	0.0999953960272251	stim12_sf2_pattern2_cont1_shape1.png	2	2	1	1	1	3	0	0	0	0	0	0	0	0	0	0	0	0	1	7
955.14697265625	0.099989531088795	1956141	358	11	stim11_sf2_pattern1_cont2_shape2.png	2	26	0	252.439676642629	252.539666173718	0.099989531088795	stim11_sf2_pattern1_cont2_shape2.png	2	1	2	2	1	2	0	0	0	0	0	0	0	0	0	0	0	0	1	7
955.64697265625	0.100020908495935	1957165	359	4	stim04_sf1_pattern2_cont1_shape1.png	2	27	0	252.939618726388	253.039639634884	0.100020908495935	stim04_sf1_pattern2_cont1_shape1.png	1	2	1	1	1	3	0	0	0	0	0	0	0	0	0	0	0	0	1	7
956.14697265625	0.0999936365442409	1958189	360	13	stim13_sf2_pattern2_cont1_shape2.png	2	28	0	253.439657288342	253.539650924886	0.0999936365442409	stim13_sf2_pattern2_cont1_shape2.png	2	2	1	2	1	3	0	0	0	0	0	0	0	0	0	0	0	0	1	7
956.64697265625	0.0999798539451149	1959213	361	9	stim09_sf2_pattern1_cont1_shape2.png	2	29	0	253.939602304567	254.039582158512	0.0999798539451149	stim09_sf2_pattern1_cont1_shape2.png	2	1	1	2	1	4	0	0	0	0	0	0	0	0	0	0	0	0	1	7
957.14697265625	0.0999508225140744	1960237	362	8	stim08_sf2_pattern1_cont1_shape1.png	2	30	0	254.439644971975	254.539595794489	0.0999508225140744	stim08_sf2_pattern1_cont1_shape1.png	2	1	1	1	1	4	0	0	0	0	0	0	0	0	0	0	0	0	1	7
957.64697265625	0.0999707632945501	1961261	363	5	stim05_sf1_pattern2_cont1_shape2.png	2	31	1	254.939612861453	255.039583624748	0.0999707632945501	stim05_sf1_pattern2_cont1_shape2.png	1	2	1	2	1	3	0	0	0	0	0	0	0	0	0	0	0	0	1	7
958.14697265625	0.0999968622600136	1962285	364	5	stim05_sf1_pattern2_cont1_shape2.png	2	32	1	255.439582803654	255.539579665914	0.0999968622600136	stim05_sf1_pattern2_cont1_shape2.png	1	2	1	2	1	3	0	0	0	0	0	0	0	0	0	0	0	0	1	7
958.64697265625	0.0999933432976832	1963309	365	1	stim01_sf1_pattern1_cont1_shape2.png	2	33	2	255.939574739368	256.039568082666	0.0999933432976832	stim01_sf1_pattern1_cont1_shape2.png	1	1	1	2	1	4	0	0	0	0	0	0	0	0	0	0	0	0	1	7
959.146484375	0.100003900181036	1964332	366	9	stim09_sf2_pattern1_cont1_shape2.png	2	34	2	256.439570487291	256.539574387472	0.100003900181036	stim09_sf2_pattern1_cont1_shape2.png	2	1	1	2	1	4	0	0	0	0	0	0	0	0	0	0	0	0	1	7
959.646484375	0.0999857188799069	1965356	367	14	stim14_sf2_pattern2_cont2_shape1.png	2	35	0	256.939569754173	257.039555473053	0.0999857188799069	stim14_sf2_pattern2_cont2_shape1.png	2	2	2	1	1	1	0	0	0	0	0	0	0	0	0	0	0	0	1	7
960.146484375	0.100004486674152	1966380	368	6	stim06_sf1_pattern2_cont2_shape1.png	2	36	0	257.439556411446	257.53956089812	0.100004486674152	stim06_sf1_pattern2_cont2_shape1.png	1	2	2	1	1	1	0	0	0	0	0	0	0	0	0	0	0	0	1	7
960.646484375	0.100019735506066	1967404	369	15	stim15_sf2_pattern2_cont2_shape2.png	2	37	0	257.939553332355	258.039573067861	0.100019735506066	stim15_sf2_pattern2_cont2_shape2.png	2	2	2	2	1	1	0	0	0	0	0	0	0	0	0	0	0	0	1	7
961.146484375	0.0999971555065713	1968428	370	11	stim11_sf2_pattern1_cont2_shape2.png	2	38	0	258.439568434562	258.539565590068	0.0999971555065713	stim11_sf2_pattern1_cont2_shape2.png	2	1	2	2	1	2	0	0	0	0	0	0	0	0	0	0	0	0	1	7
961.646484375	0.0999965690134559	1969452	371	13	stim13_sf2_pattern2_cont1_shape2.png	2	39	0	258.93954629443	259.039542863444	0.0999965690134559	stim13_sf2_pattern2_cont1_shape2.png	2	2	1	2	1	3	0	0	0	0	0	0	0	0	0	0	0	0	1	7
962.146484375	0.0999863053730223	1970476	372	9	stim09_sf2_pattern1_cont1_shape2.png	2	40	0	259.43957517924	259.539561484613	0.0999863053730223	stim09_sf2_pattern1_cont1_shape2.png	2	1	1	2	1	4	0	0	0	0	0	0	0	0	0	0	0	0	1	7
962.646484375	0.100037330317718	1971500	373	12	stim12_sf2_pattern2_cont1_shape1.png	2	41	0	259.939519315725	260.039556646043	0.100037330317718	stim12_sf2_pattern2_cont1_shape1.png	2	2	1	1	1	3	0	0	0	0	0	0	0	0	0	0	0	0	1	7
963.146484375	0.0999962757668982	1972524	374	3	stim03_sf1_pattern1_cont2_shape2.png	2	42	0	260.439557291185	260.539553566952	0.0999962757668982	stim03_sf1_pattern1_cont2_shape2.png	1	1	2	2	1	2	0	0	0	0	0	0	0	0	0	0	0	0	1	7
963.646484375	0.100019735509704	1973548	375	14	stim14_sf2_pattern2_cont2_shape1.png	2	43	0	260.939528699622	261.039548435132	0.100019735509704	stim14_sf2_pattern2_cont2_shape1.png	2	2	2	1	1	1	0	0	0	0	0	0	0	0	0	0	0	0	1	7
964.146484375	0.10000448667779	1974572	376	10	stim10_sf2_pattern1_cont2_shape1.png	2	44	0	261.439531485466	261.539535972144	0.10000448667779	stim10_sf2_pattern1_cont2_shape1.png	2	1	2	1	1	2	0	0	0	0	0	0	0	0	0	0	0	0	1	7
964.646484375	0.100009178622713	1975596	377	1	stim01_sf1_pattern1_cont1_shape2.png	2	45	0	261.939485005852	262.039494184475	0.100009178622713	stim01_sf1_pattern1_cont1_shape2.png	1	1	1	2	1	4	0	0	0	0	0	0	0	0	0	0	0	0	1	7
965.146484375	0.100000087972148	1976620	378	5	stim05_sf1_pattern2_cont1_shape2.png	2	46	0	262.439520048843	262.539520136816	0.100000087972148	stim05_sf1_pattern2_cont1_shape2.png	1	2	1	2	1	3	0	0	0	0	0	0	0	0	0	0	0	0	1	7
965.646484375	0.100026480184169	1977644	379	8	stim08_sf2_pattern1_cont1_shape1.png	2	47	0	262.939486178839	263.039512659023	0.100026480184169	stim08_sf2_pattern1_cont1_shape1.png	2	1	1	1	1	4	0	0	0	0	0	0	0	0	0	0	0	0	1	7
966.146484375	0.0999968622600136	1978668	380	2	stim02_sf1_pattern1_cont2_shape1.png	2	48	0	263.439503333775	263.539500196035	0.0999968622600136	stim02_sf1_pattern1_cont2_shape1.png	1	1	2	1	1	2	0	0	0	0	0	0	0	0	0	0	0	0	1	7
966.646484375	0.0999816134244611	1979692	381	4	stim04_sf1_pattern2_cont1_shape1.png	2	49	0	263.939495269489	264.039476882914	0.0999816134244611	stim04_sf1_pattern2_cont1_shape1.png	1	2	1	1	1	3	0	0	0	0	0	0	0	0	0	0	0	0	1	7
967.146484375	0.0999962757668982	1980716	382	7	stim07_sf1_pattern2_cont2_shape2.png	2	50	0	264.439489844422	264.539486120189	0.0999962757668982	stim07_sf1_pattern2_cont2_shape2.png	1	2	2	2	1	1	0	0	0	0	0	0	0	0	0	0	0	0	1	7
967.646484375	0.0999854256333492	1981740	383	0	stim00_sf1_pattern1_cont1_shape1.png	2	51	0	264.93948060715	265.039466032784	0.0999854256333492	stim00_sf1_pattern1_cont1_shape1.png	1	1	1	1	1	4	0	0	0	0	0	0	0	0	0	0	0	0	1	7
968.146484375	0.0999992082324752	1982764	384	3	stim03_sf1_pattern1_cont2_shape2.png	2	52	0	265.439473129358	265.53947233759	0.0999992082324752	stim03_sf1_pattern1_cont2_shape2.png	1	1	2	2	1	2	0	0	0	0	0	0	0	0	0	0	0	0	1	7
968.646484375	0.0999789742054418	1983788	385	0	stim00_sf1_pattern1_cont1_shape1.png	2	53	0	265.939465944808	266.039444919013	0.0999789742054418	stim00_sf1_pattern1_cont1_shape1.png	1	1	1	1	1	4	0	0	0	0	0	0	0	0	0	0	0	0	1	7
969.146484375	0.100000674465264	1984812	386	5	stim05_sf1_pattern2_cont1_shape2.png	2	54	0	266.439451429094	266.53945210356	0.100000674465264	stim05_sf1_pattern2_cont1_shape2.png	1	2	1	2	1	3	0	0	0	0	0	0	0	0	0	0	0	0	1	7
969.646484375	0.0999760417362268	1985836	387	12	stim12_sf2_pattern2_cont1_shape1.png	2	55	0	266.93944864325	267.039424684986	0.0999760417362268	stim12_sf2_pattern2_cont1_shape1.png	2	2	1	1	1	3	0	0	0	0	0	0	0	0	0	0	0	0	1	7
970.146484375	0.0999959825203405	1986860	388	9	stim09_sf2_pattern1_cont1_shape2.png	2	56	0	267.439442924937	267.539438907457	0.0999959825203405	stim09_sf2_pattern1_cont1_shape2.png	2	1	1	2	1	4	0	0	0	0	0	0	0	0	0	0	0	0	1	7
970.646484375	0.099969883554877	1987884	389	6	stim06_sf1_pattern2_cont2_shape1.png	2	57	0	267.939420784805	268.03939066836	0.099969883554877	stim06_sf1_pattern2_cont2_shape1.png	1	2	2	1	1	1	0	0	0	0	0	0	0	0	0	0	0	0	1	7
971.146484375	0.0999716430342232	1988908	390	13	stim13_sf2_pattern2_cont1_shape2.png	2	58	0	268.439428262598	268.539399905632	0.0999716430342232	stim13_sf2_pattern2_cont1_shape2.png	2	2	1	2	1	3	0	0	0	0	0	0	0	0	0	0	0	0	1	7
971.646484375	0.0999763349864224	1989932	391	1	stim01_sf1_pattern1_cont1_shape2.png	2	59	0	268.939419318569	269.039395653555	0.0999763349864224	stim01_sf1_pattern1_cont1_shape2.png	1	1	1	2	1	4	0	0	0	0	0	0	0	0	0	0	0	0	1	7
972.146484375	0.100017976030358	1990956	392	8	stim08_sf2_pattern1_cont1_shape1.png	2	60	0	269.439388967527	269.539406943557	0.100017976030358	stim08_sf2_pattern1_cont1_shape1.png	2	1	1	1	1	4	0	0	0	0	0	0	0	0	0	0	0	0	1	7
972.646484375	0.100005952910578	1991980	393	2	stim02_sf1_pattern1_cont2_shape1.png	2	61	0	269.939363894926	270.039369847836	0.100005952910578	stim02_sf1_pattern1_cont2_shape1.png	1	1	2	1	1	2	0	0	0	0	0	0	0	0	0	0	0	0	1	7
973.146484375	0.100003900181036	1993004	394	15	stim15_sf2_pattern2_cont2_shape2.png	2	62	0	270.4393549509	270.539358851081	0.100003900181036	stim15_sf2_pattern2_cont2_shape2.png	2	2	2	2	1	1	0	0	0	0	0	0	0	0	0	0	0	0	1	7
973.646484375	0.099989531088795	1994028	395	14	stim14_sf2_pattern2_cont2_shape1.png	2	63	0	270.939343954145	271.039333485234	0.099989531088795	stim14_sf2_pattern2_cont2_shape1.png	2	2	2	1	1	1	0	0	0	0	0	0	0	0	0	0	0	0	1	7
974.146484375	0.100007419143367	1995052	396	10	stim10_sf2_pattern1_cont2_shape1.png	2	64	0	271.439339115572	271.539346534715	0.100007419143367	stim10_sf2_pattern1_cont2_shape1.png	2	1	2	1	1	2	0	0	0	0	0	0	0	0	0	0	0	0	1	7
974.646484375	0.100003606934479	1996076	397	4	stim04_sf1_pattern2_cont1_shape1.png	2	65	0	271.939316095701	272.039319702635	0.100003606934479	stim04_sf1_pattern2_cont1_shape1.png	1	2	1	1	1	3	0	0	0	0	0	0	0	0	0	0	0	0	1	7
975.146484375	0.0999754552431114	1997100	398	7	stim07_sf1_pattern2_cont2_shape2.png	2	66	0	272.43934586025	272.539321315493	0.0999754552431114	stim07_sf1_pattern2_cont2_shape2.png	1	2	2	2	1	1	0	0	0	0	0	0	0	0	0	0	0	0	1	7
975.646484375	0.0999159261446039	1998124	399	11	stim11_sf2_pattern1_cont2_shape2.png	2	67	0	272.939421078052	273.039337004197	0.0999159261446039	stim11_sf2_pattern1_cont2_shape2.png	2	1	2	2	1	2	0	0	0	0	0	0	0	0	0	0	0	0	1	7
976.146484375	0.100005366417463	1999148	400	6	stim06_sf1_pattern2_cont2_shape1.png	2	68	0	273.439338235832	273.53934360225	0.100005366417463	stim06_sf1_pattern2_cont2_shape1.png	1	2	2	1	1	1	0	0	0	0	0	0	0	0	0	0	0	0	1	7
976.64599609375	0.0999725227738963	2000171	401	9	stim09_sf2_pattern1_cont1_shape2.png	2	69	0	273.939326066091	274.039298588865	0.0999725227738963	stim09_sf2_pattern1_cont1_shape2.png	2	1	1	2	1	4	0	0	0	0	0	0	0	0	0	0	0	0	1	7
977.14599609375	0.100084836296446	2001195	402	4	stim04_sf1_pattern2_cont1_shape1.png	2	70	0	274.439316828815	274.539401665112	0.100084836296446	stim04_sf1_pattern2_cont1_shape1.png	1	2	1	1	1	3	0	0	0	0	0	0	0	0	0	0	0	0	1	7
977.64599609375	0.0999992082361132	2002219	403	13	stim13_sf2_pattern2_cont1_shape2.png	2	71	0	274.939337502714	275.03933671095	0.0999992082361132	stim13_sf2_pattern2_cont1_shape2.png	2	2	1	2	1	3	0	0	0	0	0	0	0	0	0	0	0	0	1	7
978.14599609375	0.100000967715459	2003243	404	7	stim07_sf1_pattern2_cont2_shape2.png	2	72	0	275.439330611414	275.53933157913	0.100000967715459	stim07_sf1_pattern2_cont2_shape2.png	1	2	2	2	1	1	0	0	0	0	0	0	0	0	0	0	0	0	1	7
978.64599609375	0.0999939297907986	2004267	405	11	stim11_sf2_pattern1_cont2_shape2.png	2	73	0	275.939322547129	276.039316476919	0.0999939297907986	stim11_sf2_pattern1_cont2_shape2.png	2	1	2	2	1	2	0	0	0	0	0	0	0	0	0	0	0	0	1	7
979.14599609375	0.099997448753129	2005291	406	14	stim14_sf2_pattern2_cont2_shape1.png	2	74	0	276.439306271932	276.539303720685	0.099997448753129	stim14_sf2_pattern2_cont2_shape1.png	2	2	2	1	1	1	0	0	0	0	0	0	0	0	0	0	0	0	1	7
979.64599609375	0.100004486674152	2006315	407	2	stim02_sf1_pattern1_cont2_shape1.png	2	75	0	276.939302313102	277.039306799776	0.100004486674152	stim02_sf1_pattern1_cont2_shape1.png	1	1	2	1	1	2	0	0	0	0	0	0	0	0	0	0	0	0	1	7
980.14599609375	0.100003020441363	2007339	408	3	stim03_sf1_pattern1_cont2_shape2.png	2	76	0	277.439285451412	277.539288471853	0.100003020441363	stim03_sf1_pattern1_cont2_shape2.png	1	1	2	2	1	2	0	0	0	0	0	0	0	0	0	0	0	0	1	7
980.64599609375	0.0999953960235871	2008363	409	15	stim15_sf2_pattern2_cont2_shape2.png	2	77	0	277.939283838554	278.039279234577	0.0999953960235871	stim15_sf2_pattern2_cont2_shape2.png	2	2	2	2	1	1	0	0	0	0	0	0	0	0	0	0	0	0	1	7
981.14599609375	0.099994516283914	2009387	410	0	stim00_sf1_pattern1_cont1_shape1.png	2	78	0	278.439278413487	278.539272929771	0.099994516283914	stim00_sf1_pattern1_cont1_shape1.png	1	1	1	1	1	4	0	0	0	0	0	0	0	0	0	0	0	0	1	7
981.64599609375	0.0999915838183369	2010411	411	12	stim12_sf2_pattern2_cont1_shape1.png	2	79	0	278.939273281667	279.039264865485	0.0999915838183369	stim12_sf2_pattern2_cont1_shape1.png	2	2	1	1	1	3	0	0	0	0	0	0	0	0	0	0	0	0	1	7
982.14599609375	0.0999924635580101	2011435	412	8	stim08_sf2_pattern1_cont1_shape1.png	2	80	0	279.439262871409	279.539255334967	0.0999924635580101	stim08_sf2_pattern1_cont1_shape1.png	2	1	1	1	1	4	0	0	0	0	0	0	0	0	0	0	0	0	1	7
982.64599609375	0.0999889445956796	2012459	413	10	stim10_sf2_pattern1_cont2_shape1.png	2	81	0	279.939256859849	280.039245804444	0.0999889445956796	stim10_sf2_pattern1_cont2_shape1.png	2	1	2	1	1	2	0	0	0	0	0	0	0	0	0	0	0	0	1	7
983.14599609375	0.0999942230373563	2013483	414	1	stim01_sf1_pattern1_cont1_shape2.png	2	82	0	280.439245863094	280.539240086131	0.0999942230373563	stim01_sf1_pattern1_cont1_shape2.png	1	1	1	2	1	4	0	0	0	0	0	0	0	0	0	0	0	0	1	7
983.64599609375	0.0999942230373563	2014507	415	5	stim05_sf1_pattern2_cont1_shape2.png	2	83	0	280.939239558287	281.039233781325	0.0999942230373563	stim05_sf1_pattern2_cont1_shape2.png	1	2	1	2	1	3	0	0	0	0	0	0	0	0	0	0	0	0	1	7
984.14599609375	0.0999995014790329	2015531	416	15	stim15_sf2_pattern2_cont2_shape2.png	2	84	0	281.439227681793	281.539227183272	0.0999995014790329	stim15_sf2_pattern2_cont2_shape2.png	2	2	2	2	1	1	0	0	0	0	0	0	0	0	0	0	0	0	1	7
984.64599609375	0.100048473694187	2016555	417	0	stim00_sf1_pattern1_cont1_shape1.png	2	85	0	281.939170352045	282.039218825739	0.100048473694187	stim00_sf1_pattern1_cont1_shape1.png	1	1	1	1	1	4	0	0	0	0	0	0	0	0	0	0	0	0	1	7
985.14599609375	0.0999983284928021	2017579	418	11	stim11_sf2_pattern1_cont2_shape2.png	2	86	0	282.4392133127	282.539211641193	0.0999983284928021	stim11_sf2_pattern1_cont2_shape2.png	2	1	2	2	1	2	0	0	0	0	0	0	0	0	0	0	0	0	1	7
985.64599609375	0.0999953960272251	2018603	419	6	stim06_sf1_pattern2_cont2_shape1.png	2	87	0	282.939207887634	283.039203283661	0.0999953960272251	stim06_sf1_pattern2_cont2_shape1.png	1	2	2	1	1	1	0	0	0	0	0	0	0	0	0	0	0	0	1	7
986.14599609375	0.0999968622600136	2019627	420	12	stim12_sf2_pattern2_cont1_shape1.png	2	88	0	283.439200996334	283.539197858594	0.0999968622600136	stim12_sf2_pattern2_cont1_shape1.png	2	2	1	1	1	3	0	0	0	0	0	0	0	0	0	0	0	0	1	7
986.64599609375	0.0999962757668982	2020651	421	1	stim01_sf1_pattern1_cont1_shape2.png	2	89	0	283.939194984774	284.039191260541	0.0999962757668982	stim01_sf1_pattern1_cont1_shape2.png	1	1	1	2	1	4	0	0	0	0	0	0	0	0	0	0	0	0	1	7
987.14599609375	0.100019149012951	2021675	422	13	stim13_sf2_pattern2_cont1_shape2.png	2	90	0	284.439161701266	284.539180850279	0.100019149012951	stim13_sf2_pattern2_cont1_shape2.png	2	2	1	2	1	3	0	0	0	0	0	0	0	0	0	0	0	0	1	7
987.64599609375	0.100017096287047	2022699	423	4	stim04_sf1_pattern2_cont1_shape1.png	2	91	0	284.939136628665	285.039153724952	0.100017096287047	stim04_sf1_pattern2_cont1_shape1.png	1	2	1	1	1	3	0	0	0	0	0	0	0	0	0	0	0	0	1	7
988.14599609375	0.0999722295273386	2023723	424	8	stim08_sf2_pattern1_cont1_shape1.png	2	92	0	285.439157009318	285.539129238845	0.0999722295273386	stim08_sf2_pattern1_cont1_shape1.png	2	1	1	1	1	4	0	0	0	0	0	0	0	0	0	0	0	0	1	7
988.64599609375	0.0999992082361132	2024747	425	9	stim09_sf2_pattern1_cont1_shape2.png	2	93	0	285.939116101388	286.039115309624	0.0999992082361132	stim09_sf2_pattern1_cont1_shape2.png	2	1	1	2	1	4	0	0	0	0	0	0	0	0	0	0	0	0	1	7
989.14599609375	0.0999959825203405	2025771	426	3	stim03_sf1_pattern1_cont2_shape2.png	2	94	0	286.439110676321	286.539106658842	0.0999959825203405	stim03_sf1_pattern1_cont2_shape2.png	1	1	2	2	1	2	0	0	0	0	0	0	0	0	0	0	0	0	1	7
989.64599609375	0.0999851323867915	2026795	427	2	stim02_sf1_pattern1_cont2_shape1.png	2	95	0	286.939114048662	287.039099181049	0.0999851323867915	stim02_sf1_pattern1_cont2_shape1.png	1	1	2	1	1	2	0	0	0	0	0	0	0	0	0	0	0	0	1	7
990.14599609375	0.100019735509704	2027819	428	5	stim05_sf1_pattern2_cont1_shape2.png	2	96	0	287.439092201774	287.539111937283	0.100019735509704	stim05_sf1_pattern2_cont1_shape2.png	1	2	1	2	1	3	0	0	0	0	0	0	0	0	0	0	0	0	1	7
990.64599609375	0.100018269276916	2028843	429	10	stim10_sf2_pattern1_cont2_shape1.png	2	97	0	287.939088242943	288.03910651222	0.100018269276916	stim10_sf2_pattern1_cont2_shape1.png	2	1	2	1	1	2	0	0	0	0	0	0	0	0	0	0	0	0	1	7
991.14599609375	0.100025307197939	2029867	430	7	stim07_sf1_pattern2_cont2_shape2.png	2	98	0	288.439082231384	288.539107538581	0.100025307197939	stim07_sf1_pattern2_cont2_shape2.png	1	2	2	2	1	1	0	0	0	0	0	0	0	0	0	0	0	0	1	7
991.64599609375	0.0999953960235871	2030891	431	14	stim14_sf2_pattern2_cont2_shape1.png	2	99	0	288.93909967957	289.039095075594	0.0999953960235871	stim14_sf2_pattern2_cont2_shape1.png	2	2	2	1	1	1	0	0	0	0	0	0	0	0	0	0	0	0	1	7
992.14599609375	0.0999883581025642	2031915	432	15	stim15_sf2_pattern2_cont2_shape2.png	2	100	0	289.439105984373	289.539094342475	0.0999883581025642	stim15_sf2_pattern2_cont2_shape2.png	2	2	2	2	1	1	0	0	0	0	0	0	0	0	0	0	0	0	1	7
992.64599609375	0.100012111095566	2032939	433	11	stim11_sf2_pattern1_cont2_shape2.png	2	101	0	289.939090002423	290.039102113518	0.100012111095566	stim11_sf2_pattern1_cont2_shape2.png	2	1	2	2	1	2	0	0	0	0	0	0	0	0	0	0	0	0	1	7
993.14599609375	0.100025307197939	2033963	434	3	stim03_sf1_pattern1_cont2_shape2.png	2	102	0	290.439076952942	290.53910226014	0.100025307197939	stim03_sf1_pattern1_cont2_shape2.png	1	1	2	2	1	2	0	0	0	0	0	0	0	0	0	0	0	0	1	7
993.64599609375	0.0999968622600136	2034987	435	4	stim04_sf1_pattern2_cont1_shape1.png	2	103	0	290.939096747101	291.039093609361	0.0999968622600136	stim04_sf1_pattern2_cont1_shape1.png	1	2	1	1	1	3	0	0	0	0	0	0	0	0	0	0	0	0	1	7
994.1455078125	0.100025307197939	2036010	436	1	stim01_sf1_pattern1_cont1_shape2.png	2	104	0	291.439047921511	291.539073228709	0.100025307197939	stim01_sf1_pattern1_cont1_shape2.png	1	1	1	2	1	4	0	0	0	0	0	0	0	0	0	0	0	0	1	7
994.6455078125	0.0999933433013211	2037034	437	2	stim02_sf1_pattern1_cont2_shape1.png	2	105	0	291.939076219824	292.039069563125	0.0999933433013211	stim02_sf1_pattern1_cont2_shape1.png	1	1	2	1	1	2	0	0	0	0	0	0	0	0	0	0	0	0	1	7
995.1455078125	0.0999986217393598	2038058	438	6	stim06_sf1_pattern2_cont2_shape1.png	2	106	0	292.439074900216	292.539073521955	0.0999986217393598	stim06_sf1_pattern2_cont2_shape1.png	1	2	2	1	1	1	0	0	0	0	0	0	0	0	0	0	0	0	1	7
995.6455078125	0.0999956892737828	2039082	439	9	stim09_sf2_pattern1_cont1_shape2.png	2	107	0	292.939056865536	293.03905255481	0.0999956892737828	stim09_sf2_pattern1_cont1_shape2.png	2	1	1	2	1	4	0	0	0	0	0	0	0	0	0	0	0	0	1	7
996.1455078125	0.100001260962017	2040106	440	0	stim00_sf1_pattern1_cont1_shape1.png	2	108	0	293.439044695795	293.539045956757	0.100001260962017	stim00_sf1_pattern1_cont1_shape1.png	1	1	1	1	1	4	0	0	0	0	0	0	0	0	0	0	0	0	1	7
996.6455078125	0.0999953960235871	2041130	441	5	stim05_sf1_pattern2_cont1_shape2.png	2	109	0	293.939041616704	294.039037012728	0.0999953960235871	stim05_sf1_pattern2_cont1_shape2.png	1	2	1	2	1	3	0	0	0	0	0	0	0	0	0	0	0	0	1	7
997.1455078125	0.0999989149859175	2042154	442	7	stim07_sf1_pattern2_cont2_shape2.png	2	110	0	294.439030033456	294.539028948442	0.0999989149859175	stim07_sf1_pattern2_cont2_shape2.png	1	2	2	2	1	1	0	0	0	0	0	0	0	0	0	0	0	0	1	7
997.6455078125	0.0999968622600136	2043178	443	12	stim12_sf2_pattern2_cont1_shape1.png	2	111	0	294.939024901636	295.039021763896	0.0999968622600136	stim12_sf2_pattern2_cont1_shape1.png	2	2	1	1	1	3	0	0	0	0	0	0	0	0	0	0	0	0	1	7
998.1455078125	0.0999933432976832	2044202	444	14	stim14_sf2_pattern2_cont2_shape1.png	2	112	0	295.439018303583	295.539011646881	0.0999933432976832	stim14_sf2_pattern2_cont2_shape1.png	2	2	2	1	1	1	0	0	0	0	0	0	0	0	0	0	0	0	1	7
998.6455078125	0.0999980352462444	2045226	445	10	stim10_sf2_pattern1_cont2_shape1.png	2	113	0	295.939007013581	296.039005048828	0.0999980352462444	stim10_sf2_pattern1_cont2_shape1.png	2	1	2	1	1	2	0	0	0	0	0	0	0	0	0	0	0	0	1	7
999.1455078125	0.100023254472035	2046250	446	8	stim08_sf2_pattern1_cont1_shape1.png	2	114	0	296.438976076046	296.538999330518	0.100023254472035	stim08_sf2_pattern1_cont1_shape1.png	2	1	1	1	1	4	0	0	0	0	0	0	0	0	0	0	0	0	1	7
999.6455078125	0.0999977419996867	2047274	447	13	stim13_sf2_pattern2_cont1_shape2.png	2	115	0	296.938993524229	297.038991266229	0.0999977419996867	stim13_sf2_pattern2_cont1_shape2.png	2	2	1	2	1	3	0	0	0	0	0	0	0	0	0	0	0	0	1	7
1000.1455078125	0.100026480184169	2048298	448	7	stim07_sf1_pattern2_cont2_shape2.png	2	116	0	297.438957308252	297.538983788436	0.100026480184169	stim07_sf1_pattern2_cont2_shape2.png	1	2	2	2	1	1	0	0	0	0	0	0	0	0	0	0	0	0	1	7
1000.6455078125	0.100003900184674	2049322	449	9	stim09_sf2_pattern1_cont1_shape2.png	2	117	0	297.938975342928	298.038979243112	0.100003900184674	stim09_sf2_pattern1_cont1_shape2.png	2	1	1	2	1	4	0	0	0	0	0	0	0	0	0	0	0	0	1	7
