onset	duration	onsetsample	eventnumber	stimnumber	stimname	blocknumber	trialnumber	istarget	time_stimon	time_stimoff	stimdur	stimfilename	spatial_freq	pattern	contrast	shape	is_fast_stream	category	ppt_1_response	ppt_1_keypressed	ppt_1_rt	ppt_1_correct	ppt_2_response	ppt_2_keypressed	ppt_2_rt	ppt_2_correct	button1	button2	button3	button4	task_part_number	subjectnr
193.45166015625	0.0999959825189762	396189	0	4	stim04_sf1_pattern2_cont1_shape1.png	0	0	0	381.155660968002	381.255656950521	0.0999959825189762	stim04_sf1_pattern2_cont1_shape1.png	1	2	1	1	1	2	0	0	0	0	0	0	0	0	0	0	0	0	1	24
193.9599609375	0.0999992082338395	397230	1	7	stim07_sf1_pattern2_cont2_shape2.png	0	1	0	381.663983165288	381.763982373522	0.0999992082338395	stim07_sf1_pattern2_cont2_shape2.png	1	2	2	2	1	2	0	0	0	0	0	0	0	0	0	0	0	0	1	24
194.46826171875	0.104487350359705	398271	2	12	stim12_sf2_pattern2_cont1_shape1.png	0	2	0	382.184487713986	382.288975064346	0.104487350359705	stim12_sf2_pattern2_cont1_shape1.png	2	2	1	1	1	1	0	0	0	0	0	0	0	0	0	0	0	0	1	24
194.98486328125	0.0999904108302871	399329	3	9	stim09_sf2_pattern1_cont1_shape2.png	0	3	0	382.6889701378	382.78896054863	0.0999904108302871	stim09_sf2_pattern1_cont1_shape2.png	2	1	1	2	1	3	0	0	0	0	0	0	0	0	0	0	0	0	1	24
195.48486328125	0.0999977419996867	400353	4	1	stim01_sf1_pattern1_cont1_shape2.png	0	4	0	383.188949170654	383.288946912654	0.0999977419996867	stim01_sf1_pattern1_cont1_shape2.png	1	1	1	2	1	4	0	0	0	0	0	0	0	0	0	0	0	0	1	24
195.98486328125	0.0999909973234026	401377	5	8	stim08_sf2_pattern1_cont1_shape1.png	0	5	0	383.688971604034	383.788962601357	0.0999909973234026	stim08_sf2_pattern1_cont1_shape1.png	2	1	1	1	1	3	0	0	0	0	0	0	0	0	0	0	0	0	1	24
196.48486328125	0.100004193428958	402401	6	10	stim10_sf2_pattern1_cont2_shape1.png	0	6	0	384.18894682468	384.288951018109	0.100004193428958	stim10_sf2_pattern1_cont2_shape1.png	2	1	2	1	1	3	0	0	0	0	0	0	0	0	0	0	0	0	1	24
196.98486328125	0.0999329344590478	403425	7	2	stim02_sf1_pattern1_cont2_shape1.png	0	7	0	384.689017350533	384.788950284992	0.0999329344590478	stim02_sf1_pattern1_cont2_shape1.png	1	1	2	1	1	4	0	0	0	0	0	0	0	0	0	0	0	0	1	24
197.48486328125	0.10000096771455	404449	8	15	stim15_sf2_pattern2_cont2_shape2.png	0	8	0	385.188938320523	385.288939288238	0.10000096771455	stim15_sf2_pattern2_cont2_shape2.png	2	2	2	2	1	1	0	0	0	0	0	0	0	0	0	0	0	0	1	24
197.98486328125	0.100000381220525	405473	9	5	stim05_sf1_pattern2_cont1_shape2.png	0	9	0	385.688939346887	385.788939728107	0.100000381220525	stim05_sf1_pattern2_cont1_shape2.png	1	2	1	2	1	2	0	0	0	0	0	0	0	0	0	0	0	0	1	24
198.48486328125	0.0999874783619816	406497	10	6	stim06_sf1_pattern2_cont2_shape1.png	0	10	0	386.188929229872	386.288916708234	0.0999874783619816	stim06_sf1_pattern2_cont2_shape1.png	1	2	2	1	1	2	0	0	0	0	0	0	0	0	0	0	0	0	1	24
198.98486328125	0.10000272719526	407521	11	14	stim14_sf2_pattern2_cont2_shape1.png	0	11	0	386.688913834416	386.788916561611	0.10000272719526	stim14_sf2_pattern2_cont2_shape1.png	2	2	2	1	1	1	0	0	0	0	0	0	0	0	0	0	0	0	1	24
199.48486328125	0.100000674467537	408545	12	11	stim11_sf2_pattern1_cont2_shape2.png	0	12	0	387.188894626751	387.288895301219	0.100000674467537	stim11_sf2_pattern1_cont2_shape2.png	2	1	2	2	1	3	0	0	0	0	0	0	0	0	0	0	0	0	1	24
199.98486328125	0.0999962757659887	409569	13	3	stim03_sf1_pattern1_cont2_shape2.png	0	13	0	387.688900051817	387.788896327583	0.0999962757659887	stim03_sf1_pattern1_cont2_shape2.png	1	1	2	2	1	4	0	0	0	0	0	0	0	0	0	0	0	0	1	24
200.48486328125	0.0999819066732925	410593	14	13	stim13_sf2_pattern2_cont1_shape2.png	0	14	0	388.188881137399	388.288863044072	0.0999819066732925	stim13_sf2_pattern2_cont1_shape2.png	2	2	1	2	1	1	0	0	0	0	0	0	0	0	0	0	0	0	1	24
200.98486328125	0.0999968622591041	411617	15	0	stim00_sf1_pattern1_cont1_shape1.png	0	15	0	388.688882163763	388.788879026022	0.0999968622591041	stim00_sf1_pattern1_cont1_shape1.png	1	1	1	1	1	4	0	0	0	0	0	0	0	0	0	0	0	0	1	24
201.48486328125	0.0999827864134204	412641	16	9	stim09_sf2_pattern1_cont1_shape2.png	0	16	0	389.18886090337	389.288843689784	0.0999827864134204	stim09_sf2_pattern1_cont1_shape2.png	2	1	1	2	1	3	0	0	0	0	0	0	0	0	0	0	0	0	1	24
201.98486328125	0.0999977419996867	413665	17	6	stim06_sf1_pattern2_cont2_shape1.png	0	17	0	389.688867501423	389.788865243423	0.0999977419996867	stim06_sf1_pattern2_cont2_shape1.png	1	2	2	1	1	2	0	0	0	0	0	0	0	0	0	0	0	0	1	24
202.48486328125	0.100013870573093	414689	18	11	stim11_sf2_pattern1_cont2_shape2.png	0	18	0	390.188842428823	390.288856299396	0.100013870573093	stim11_sf2_pattern1_cont2_shape2.png	2	1	2	2	1	3	0	0	0	0	0	0	0	0	0	0	0	0	1	24
202.98486328125	0.0999907040768448	415713	19	1	stim01_sf1_pattern1_cont1_shape2.png	0	19	0	390.688854012071	390.788844716148	0.0999907040768448	stim01_sf1_pattern1_cont1_shape2.png	1	1	1	2	1	4	0	0	0	0	0	0	0	0	0	0	0	0	1	24
203.48486328125	0.100004486675516	416737	20	7	stim07_sf1_pattern2_cont2_shape2.png	0	20	0	391.188826886743	391.288831373418	0.100004486675516	stim07_sf1_pattern2_cont2_shape2.png	1	2	2	2	1	2	0	0	0	0	0	0	0	0	0	0	0	0	1	24
203.98486328125	0.10000038122098	417761	21	15	stim15_sf2_pattern2_cont2_shape2.png	0	21	0	391.688835244276	391.788835625497	0.10000038122098	stim15_sf2_pattern2_cont2_shape2.png	2	2	2	2	1	1	0	0	0	0	0	0	0	0	0	0	0	0	1	24
204.48486328125	0.100013870573093	418785	22	8	stim08_sf2_pattern1_cont1_shape1.png	0	22	0	392.188816916352	392.288830786925	0.100013870573093	stim08_sf2_pattern1_cont1_shape1.png	2	1	1	1	1	3	0	0	0	0	0	0	0	0	0	0	0	0	1	24
204.98486328125	0.100008592130962	419809	23	4	stim04_sf1_pattern2_cont1_shape1.png	0	23	0	392.68882028869	392.788828880821	0.100008592130962	stim04_sf1_pattern2_cont1_shape1.png	1	2	1	1	1	2	0	0	0	0	0	0	0	0	0	0	0	0	1	24
205.48486328125	0.100020028755807	420833	24	3	stim03_sf1_pattern1_cont2_shape2.png	0	24	0	393.188784952451	393.288804981207	0.100020028755807	stim03_sf1_pattern1_cont2_shape2.png	1	1	2	2	1	4	0	0	0	0	0	0	0	0	0	0	0	0	1	24
205.98486328125	0.100003313688831	421857	25	0	stim00_sf1_pattern1_cont1_shape1.png	0	25	0	393.688801520895	393.788804834584	0.100003313688831	stim00_sf1_pattern1_cont1_shape1.png	1	1	1	1	1	4	0	0	0	0	0	0	0	0	0	0	0	0	1	24
206.48486328125	0.0999766282307064	422881	26	14	stim14_sf2_pattern2_cont2_shape1.png	0	26	0	394.188770876606	394.288747504836	0.0999766282307064	stim14_sf2_pattern2_cont2_shape1.png	2	2	2	1	1	1	0	0	0	0	0	0	0	0	0	0	0	0	1	24
206.984375	0.0999701768014347	423904	27	13	stim13_sf2_pattern2_cont1_shape2.png	0	27	0	394.688771023229	394.78874120003	0.0999701768014347	stim13_sf2_pattern2_cont1_shape2.png	2	2	1	2	1	1	0	0	0	0	0	0	0	0	0	0	0	0	1	24
207.484375	0.0999804404391398	424928	28	5	stim05_sf1_pattern2_cont1_shape2.png	0	28	0	395.188748883096	395.288729323535	0.0999804404391398	stim05_sf1_pattern2_cont1_shape2.png	1	2	1	2	1	2	0	0	0	0	0	0	0	0	0	0	0	0	1	24
207.984375	0.100015923300361	425952	29	12	stim12_sf2_pattern2_cont1_shape1.png	0	29	0	395.688737006602	395.788752929902	0.100015923300361	stim12_sf2_pattern2_cont1_shape1.png	2	2	1	1	1	1	0	0	0	0	0	0	0	0	0	0	0	0	1	24
208.484375	0.099978974204987	426976	30	10	stim10_sf2_pattern1_cont2_shape1.png	0	30	0	396.188735980238	396.288714954443	0.099978974204987	stim10_sf2_pattern1_cont2_shape1.png	2	1	2	1	1	3	0	0	0	0	0	0	0	0	0	0	0	0	1	24
208.984375	0.0999965690125464	428000	31	2	stim02_sf1_pattern1_cont2_shape1.png	0	31	0	396.688739059329	396.788735628341	0.0999965690125464	stim02_sf1_pattern1_cont2_shape1.png	1	1	2	1	1	4	0	0	0	0	0	0	0	0	0	0	0	0	1	24
209.484375	0.100015043560234	429024	32	5	stim05_sf1_pattern2_cont1_shape2.png	0	32	1	397.188725423353	397.288740466914	0.100015043560234	stim05_sf1_pattern2_cont1_shape2.png	1	2	1	2	1	2	0	0	0	0	0	0	0	0	0	0	0	0	1	24
209.984375	0.0999945162848235	430048	33	5	stim05_sf1_pattern2_cont1_shape2.png	0	33	1	397.688728502445	397.788723018729	0.0999945162848235	stim05_sf1_pattern2_cont1_shape2.png	1	2	1	2	1	2	0	0	0	0	0	0	0	0	0	0	0	0	1	24
210.484375	0.100001260961562	431072	34	10	stim10_sf2_pattern1_cont2_shape1.png	0	34	2	398.188708121792	398.288709382754	0.100001260961562	stim10_sf2_pattern1_cont2_shape1.png	2	1	2	1	1	3	0	0	0	0	0	0	0	0	0	0	0	0	1	24
210.984375	0.10000214070169	432096	35	9	stim09_sf2_pattern1_cont1_shape2.png	0	35	2	398.688729675432	398.788731816133	0.10000214070169	stim09_sf2_pattern1_cont1_shape2.png	2	1	1	2	1	3	0	0	0	0	0	0	0	0	0	0	0	0	1	24
211.484375	0.10000272719526	433120	36	11	stim11_sf2_pattern1_cont2_shape2.png	0	36	0	399.188712227247	399.288714954443	0.10000272719526	stim11_sf2_pattern1_cont2_shape2.png	2	1	2	2	1	3	0	0	0	0	0	0	0	0	0	0	0	0	1	24
211.984375	0.0999863053748413	434144	37	1	stim01_sf1_pattern1_cont1_shape2.png	0	37	0	399.688719118547	399.788705423922	0.0999863053748413	stim01_sf1_pattern1_cont1_shape2.png	1	1	1	2	1	4	0	0	0	0	0	0	0	0	0	0	0	0	1	24
212.484375	0.100012404338941	435168	38	10	stim10_sf2_pattern1_cont2_shape1.png	0	38	0	400.188690526985	400.288702931324	0.100012404338941	stim10_sf2_pattern1_cont2_shape1.png	2	1	2	1	1	3	0	0	0	0	0	0	0	0	0	0	0	0	1	24
212.984375	0.100001260961108	436192	39	5	stim05_sf1_pattern2_cont1_shape2.png	0	39	0	400.688695952051	400.788697213012	0.100001260961108	stim05_sf1_pattern2_cont1_shape2.png	1	2	1	2	1	2	0	0	0	0	0	0	0	0	0	0	0	0	1	24
213.484375	0.0999983284932568	437216	40	9	stim09_sf2_pattern1_cont1_shape2.png	0	40	0	401.188689940492	401.288688268985	0.0999983284932568	stim09_sf2_pattern1_cont1_shape2.png	2	1	1	2	1	3	0	0	0	0	0	0	0	0	0	0	0	0	1	24
213.984375	0.100010938105243	438240	41	6	stim06_sf1_pattern2_cont2_shape1.png	0	41	0	401.688668386852	401.788679324958	0.100010938105243	stim06_sf1_pattern2_cont2_shape1.png	1	2	2	1	1	2	0	0	0	0	0	0	0	0	0	0	0	0	1	24
214.484375	0.10000155420812	439264	42	12	stim12_sf2_pattern2_cont1_shape1.png	0	42	0	402.188656803604	402.288658357812	0.10000155420812	stim12_sf2_pattern2_cont1_shape1.png	2	2	1	1	1	1	0	0	0	0	0	0	0	0	0	0	0	0	1	24
214.984375	0.099998914986827	440288	43	14	stim14_sf2_pattern2_cont2_shape1.png	0	43	0	402.68866398815	402.788662903137	0.099998914986827	stim14_sf2_pattern2_cont2_shape1.png	2	2	2	1	1	1	0	0	0	0	0	0	0	0	0	0	0	0	1	24
215.484375	0.0999997947274096	441312	44	2	stim02_sf1_pattern1_cont2_shape1.png	0	44	0	403.188645073732	403.28864486846	0.0999997947274096	stim02_sf1_pattern1_cont2_shape1.png	1	1	2	1	1	4	0	0	0	0	0	0	0	0	0	0	0	0	1	24
215.984375	0.0999977419996867	442336	45	4	stim04_sf1_pattern2_cont1_shape1.png	0	45	0	403.688648152824	403.788645894824	0.0999977419996867	stim04_sf1_pattern2_cont1_shape1.png	1	2	1	1	1	2	0	0	0	0	0	0	0	0	0	0	0	0	1	24
216.484375	0.100019442262237	443360	46	3	stim03_sf1_pattern1_cont2_shape2.png	0	46	0	404.188629531653	404.288648973915	0.100019442262237	stim03_sf1_pattern1_cont2_shape2.png	1	1	2	2	1	4	0	0	0	0	0	0	0	0	0	0	0	0	1	24
216.984375	0.100006246156227	444384	47	8	stim08_sf2_pattern1_cont1_shape1.png	0	47	0	404.688618241652	404.788624487808	0.100006246156227	stim08_sf2_pattern1_cont1_shape1.png	2	1	1	1	1	3	0	0	0	0	0	0	0	0	0	0	0	0	1	24
217.484375	0.0999971555061165	445408	48	15	stim15_sf2_pattern2_cont2_shape2.png	0	48	0	405.188629531653	405.288626687159	0.0999971555061165	stim15_sf2_pattern2_cont2_shape2.png	2	2	2	2	1	1	0	0	0	0	0	0	0	0	0	0	0	0	1	24
217.984375	0.0999980352462444	446432	49	7	stim07_sf1_pattern2_cont2_shape2.png	0	49	0	405.688619414639	405.788617449885	0.0999980352462444	stim07_sf1_pattern2_cont2_shape2.png	1	2	2	2	1	2	0	0	0	0	0	0	0	0	0	0	0	0	1	24
218.484375	0.100007125897264	447456	50	0	stim00_sf1_pattern1_cont1_shape1.png	0	50	0	406.188595221778	406.288602347675	0.100007125897264	stim00_sf1_pattern1_cont1_shape1.png	1	1	1	1	1	4	0	0	0	0	0	0	0	0	0	0	0	0	1	24
218.984375	0.0999918770639852	448480	51	13	stim13_sf2_pattern2_cont1_shape2.png	0	51	0	406.688603286065	406.788595163129	0.0999918770639852	stim13_sf2_pattern2_cont1_shape2.png	2	2	1	2	1	1	0	0	0	0	0	0	0	0	0	0	0	0	1	24
219.484375	0.100008298884404	449504	52	10	stim10_sf2_pattern1_cont2_shape1.png	0	52	0	407.188577333724	407.288585632608	0.100008298884404	stim10_sf2_pattern1_cont2_shape1.png	2	1	2	1	1	3	0	0	0	0	0	0	0	0	0	0	0	0	1	24
219.984375	0.100003020441818	450528	53	7	stim07_sf1_pattern2_cont2_shape2.png	0	53	0	407.68858275879	407.788585779232	0.100003020441818	stim07_sf1_pattern2_cont2_shape2.png	1	2	2	2	1	2	0	0	0	0	0	0	0	0	0	0	0	0	1	24
220.484375	0.100010058365115	451552	54	2	stim02_sf1_pattern1_cont2_shape1.png	0	54	0	408.188559738916	408.288569797282	0.100010058365115	stim02_sf1_pattern1_cont2_shape1.png	1	1	2	1	1	4	0	0	0	0	0	0	0	0	0	0	0	0	1	24
220.984375	0.0999783877114169	452576	55	4	stim04_sf1_pattern2_cont1_shape1.png	0	55	0	408.688567509957	408.788545897668	0.0999783877114169	stim04_sf1_pattern2_cont1_shape1.png	1	2	1	1	1	2	0	0	0	0	0	0	0	0	0	0	0	0	1	24
221.484375	0.100039383043622	453600	56	11	stim11_sf2_pattern1_cont2_shape2.png	0	56	0	409.188524256055	409.288563639099	0.100039383043622	stim11_sf2_pattern1_cont2_shape2.png	2	1	2	2	1	3	0	0	0	0	0	0	0	0	0	0	0	0	1	24
221.984375	0.100022961223658	454624	57	6	stim06_sf1_pattern2_cont2_shape1.png	0	57	0	409.688510913326	409.78853387455	0.100022961223658	stim06_sf1_pattern2_cont2_shape1.png	1	2	2	1	1	2	0	0	0	0	0	0	0	0	0	0	0	0	1	24
222.484375	0.100004486675971	455648	58	12	stim12_sf2_pattern2_cont1_shape1.png	0	58	0	410.188491412414	410.28849589909	0.100004486675971	stim12_sf2_pattern2_cont1_shape1.png	2	2	1	1	1	1	0	0	0	0	0	0	0	0	0	0	0	0	1	24
222.984375	0.100016803040944	456672	59	0	stim00_sf1_pattern1_cont1_shape1.png	0	59	0	410.688498010467	410.788514813508	0.100016803040944	stim00_sf1_pattern1_cont1_shape1.png	1	1	1	1	1	4	0	0	0	0	0	0	0	0	0	0	0	0	1	24
223.484375	0.100000967714095	457696	60	15	stim15_sf2_pattern2_cont2_shape2.png	0	60	0	411.188479096049	411.288480063763	0.100000967714095	stim15_sf2_pattern2_cont2_shape2.png	2	2	2	2	1	1	0	0	0	0	0	0	0	0	0	0	0	0	1	24
223.98388671875	0.100017682781527	458719	61	3	stim03_sf1_pattern1_cont2_shape2.png	0	61	0	411.688482761634	411.788500444416	0.100017682781527	stim03_sf1_pattern1_cont2_shape2.png	1	1	2	2	1	4	0	0	0	0	0	0	0	0	0	0	0	0	1	24
224.48388671875	0.100005366416099	459743	62	8	stim08_sf2_pattern1_cont1_shape1.png	0	62	0	412.188491119168	412.288496485584	0.100005366416099	stim08_sf2_pattern1_cont1_shape1.png	2	1	1	1	1	3	0	0	0	0	0	0	0	0	0	0	0	0	1	24
224.98388671875	0.100000087973967	460767	63	9	stim09_sf2_pattern1_cont1_shape2.png	0	63	0	412.688491265791	412.788491353765	0.100000087973967	stim09_sf2_pattern1_cont1_shape2.png	2	1	1	2	1	3	0	0	0	0	0	0	0	0	0	0	0	0	1	24
225.48388671875	0.100000381220525	461791	64	14	stim14_sf2_pattern2_cont2_shape1.png	0	64	0	413.188488773194	413.288489154414	0.100000381220525	stim14_sf2_pattern2_cont2_shape1.png	2	2	2	1	1	1	0	0	0	0	0	0	0	0	0	0	0	0	1	24
225.98388671875	0.100003900181946	462815	65	1	stim01_sf1_pattern1_cont1_shape2.png	0	65	0	413.68847953592	413.788483436102	0.100003900181946	stim01_sf1_pattern1_cont1_shape2.png	1	1	1	2	1	4	0	0	0	0	0	0	0	0	0	0	0	0	1	24
226.48388671875	0.0999868918684115	463839	66	5	stim05_sf1_pattern2_cont1_shape2.png	0	66	0	414.18849639761	414.288483289478	0.0999868918684115	stim05_sf1_pattern2_cont1_shape2.png	1	2	1	2	1	2	0	0	0	0	0	0	0	0	0	0	0	0	1	24
226.98388671875	0.0999948095318359	464863	67	7	stim07_sf1_pattern2_cont2_shape2.png	0	67	1	414.688490092804	414.788484902336	0.0999948095318359	stim07_sf1_pattern2_cont2_shape2.png	1	2	2	2	1	2	0	0	0	0	0	0	0	0	0	0	0	0	1	24
227.48388671875	0.10000096771455	465887	68	7	stim07_sf1_pattern2_cont2_shape2.png	0	68	1	415.188454170072	415.288455137787	0.10000096771455	stim07_sf1_pattern2_cont2_shape2.png	1	2	2	2	1	2	0	0	0	0	0	0	0	0	0	0	0	0	1	24
227.98388671875	0.0999845458941309	466911	69	13	stim13_sf2_pattern2_cont1_shape2.png	0	69	2	415.688463114099	415.788447659993	0.0999845458941309	stim13_sf2_pattern2_cont1_shape2.png	2	2	1	2	1	1	0	0	0	0	0	0	0	0	0	0	0	0	1	24
228.48388671875	0.100025893691509	467935	70	10	stim10_sf2_pattern1_cont2_shape1.png	0	70	2	416.188438334746	416.288464228437	0.100025893691509	stim10_sf2_pattern1_cont2_shape1.png	2	1	2	1	1	3	0	0	0	0	0	0	0	0	0	0	0	0	1	24
228.98388671875	0.100015336807246	468959	71	13	stim13_sf2_pattern2_cont1_shape2.png	0	71	0	416.688429390718	416.788444727526	0.100015336807246	stim13_sf2_pattern2_cont1_shape2.png	2	2	1	2	1	1	0	0	0	0	0	0	0	0	0	0	0	0	1	24
229.48388671875	0.0999968622595588	469983	72	15	stim15_sf2_pattern2_cont2_shape2.png	0	72	0	417.188442733447	417.288439595707	0.0999968622595588	stim15_sf2_pattern2_cont2_shape2.png	2	2	2	2	1	1	0	0	0	0	0	0	0	0	0	0	0	0	1	24
229.98388671875	0.0999909973234026	471007	73	5	stim05_sf1_pattern2_cont1_shape2.png	0	73	0	417.688437308382	417.788428305705	0.0999909973234026	stim05_sf1_pattern2_cont1_shape2.png	1	2	1	2	1	2	0	0	0	0	0	0	0	0	0	0	0	0	1	24
230.48388671875	0.100012404339395	472031	74	11	stim11_sf2_pattern1_cont2_shape2.png	0	74	0	418.188393467986	418.288405872326	0.100012404339395	stim11_sf2_pattern1_cont2_shape2.png	2	1	2	2	1	3	0	0	0	0	0	0	0	0	0	0	0	0	1	24
230.98388671875	0.0999959825189762	473055	75	4	stim04_sf1_pattern2_cont1_shape1.png	0	75	0	418.688418833834	418.788414816353	0.0999959825189762	stim04_sf1_pattern2_cont1_shape1.png	1	2	1	1	1	2	0	0	0	0	0	0	0	0	0	0	0	0	1	24
231.48388671875	0.0999863053748413	474079	76	9	stim09_sf2_pattern1_cont1_shape2.png	0	76	0	419.188411942534	419.288398247909	0.0999863053748413	stim09_sf2_pattern1_cont1_shape2.png	2	1	1	2	1	3	0	0	0	0	0	0	0	0	0	0	0	0	1	24
231.98388671875	0.0999980352466991	475103	77	3	stim03_sf1_pattern1_cont2_shape2.png	0	77	0	419.688402412014	419.78840044726	0.0999980352466991	stim03_sf1_pattern1_cont2_shape2.png	1	1	2	2	1	4	0	0	0	0	0	0	0	0	0	0	0	0	1	24
232.48388671875	0.100007712390379	476127	78	1	stim01_sf1_pattern1_cont1_shape2.png	0	78	0	420.188393761233	420.288401473624	0.100007712390379	stim01_sf1_pattern1_cont1_shape2.png	1	1	1	2	1	4	0	0	0	0	0	0	0	0	0	0	0	0	1	24
232.98388671875	0.0999959825189762	477151	79	10	stim10_sf2_pattern1_cont2_shape1.png	0	79	0	420.688388922661	420.78838490518	0.0999959825189762	stim10_sf2_pattern1_cont2_shape1.png	2	1	2	1	1	3	0	0	0	0	0	0	0	0	0	0	0	0	1	24
233.48388671875	0.100016803040944	478175	80	6	stim06_sf1_pattern2_cont2_shape1.png	0	80	0	421.188362677074	421.288379480115	0.100016803040944	stim06_sf1_pattern2_cont2_shape1.png	1	2	2	1	1	2	0	0	0	0	0	0	0	0	0	0	0	0	1	24
233.98388671875	0.100000087973967	479199	81	12	stim12_sf2_pattern2_cont1_shape1.png	0	81	0	421.688370154867	421.788370242841	0.100000087973967	stim12_sf2_pattern2_cont1_shape1.png	2	2	1	1	1	1	0	0	0	0	0	0	0	0	0	0	0	0	1	24
234.48388671875	0.100003313688376	480223	82	0	stim00_sf1_pattern1_cont1_shape1.png	0	82	0	422.188347721487	422.288351035176	0.100003313688376	stim00_sf1_pattern1_cont1_shape1.png	1	1	1	1	1	4	0	0	0	0	0	0	0	0	0	0	0	0	1	24
234.98388671875	0.0999956892719638	481247	83	13	stim13_sf2_pattern2_cont1_shape2.png	0	83	0	422.688356958761	422.788352648033	0.0999956892719638	stim13_sf2_pattern2_cont1_shape2.png	2	2	1	2	1	1	0	0	0	0	0	0	0	0	0	0	0	0	1	24
235.48388671875	0.0999807336856975	482271	84	8	stim08_sf2_pattern1_cont1_shape1.png	0	84	0	423.18833012668	423.288310860366	0.0999807336856975	stim08_sf2_pattern1_cont1_shape1.png	2	1	1	1	1	3	0	0	0	0	0	0	0	0	0	0	0	0	1	24
235.98388671875	0.0999874783619816	483295	85	14	stim14_sf2_pattern2_cont2_shape1.png	0	85	0	423.688342003175	423.788329481537	0.0999874783619816	stim14_sf2_pattern2_cont2_shape1.png	2	2	2	1	1	1	0	0	0	0	0	0	0	0	0	0	0	0	1	24
236.48388671875	0.0999731092692855	484319	86	2	stim02_sf1_pattern1_cont2_shape1.png	0	86	0	424.188319863042	424.288292972311	0.0999731092692855	stim02_sf1_pattern1_cont2_shape1.png	1	1	2	1	1	4	0	0	0	0	0	0	0	0	0	0	0	0	1	24
236.98388671875	0.0999593266701595	485343	87	7	stim07_sf1_pattern2_cont2_shape2.png	0	87	0	424.688330273303	424.788289599973	0.0999593266701595	stim07_sf1_pattern2_cont2_shape2.png	1	2	2	2	1	2	0	0	0	0	0	0	0	0	0	0	0	0	1	24
237.48388671875	0.0999821999198502	486367	88	11	stim11_sf2_pattern1_cont2_shape2.png	0	88	0	425.188289658623	425.288271858542	0.0999821999198502	stim11_sf2_pattern1_cont2_shape2.png	2	1	2	2	1	3	0	0	0	0	0	0	0	0	0	0	0	0	1	24
237.98388671875	0.0999786809584293	487391	89	7	stim07_sf1_pattern2_cont2_shape2.png	0	89	0	425.688281301089	425.788259982048	0.0999786809584293	stim07_sf1_pattern2_cont2_shape2.png	1	2	2	2	1	2	0	0	0	0	0	0	0	0	0	0	0	0	1	24
238.48388671875	0.0999924635571006	488415	90	10	stim10_sf2_pattern1_cont2_shape1.png	0	90	0	426.188256521736	426.288248985293	0.0999924635571006	stim10_sf2_pattern1_cont2_shape1.png	2	1	2	1	1	3	0	0	0	0	0	0	0	0	0	0	0	0	1	24
238.98388671875	0.0999722295291576	489439	91	6	stim06_sf1_pattern2_cont2_shape1.png	0	91	0	426.688276315894	426.788248545423	0.0999722295291576	stim06_sf1_pattern2_cont2_shape1.png	1	2	2	1	1	2	0	0	0	0	0	0	0	0	0	0	0	0	1	24
239.48388671875	0.0999948095318359	490463	92	5	stim05_sf1_pattern2_cont1_shape2.png	0	92	0	427.188252709527	427.288247519059	0.0999948095318359	stim05_sf1_pattern2_cont1_shape2.png	1	2	1	2	1	2	0	0	0	0	0	0	0	0	0	0	0	0	1	24
239.98388671875	0.0999936365446956	491487	93	4	stim04_sf1_pattern2_cont1_shape1.png	0	93	0	427.688269571217	427.788263207762	0.0999936365446956	stim04_sf1_pattern2_cont1_shape1.png	1	2	1	1	1	2	0	0	0	0	0	0	0	0	0	0	0	0	1	24
240.48388671875	0.100005073169541	492511	94	9	stim09_sf2_pattern1_cont1_shape2.png	0	94	0	428.188248017579	428.288253090748	0.100005073169541	stim09_sf2_pattern1_cont1_shape2.png	2	1	1	2	1	3	0	0	0	0	0	0	0	0	0	0	0	0	1	24
240.9833984375	0.0999909973234026	493534	95	8	stim08_sf2_pattern1_cont1_shape1.png	0	95	0	428.688254908878	428.788245906202	0.0999909973234026	stim08_sf2_pattern1_cont1_shape1.png	2	1	1	1	1	3	0	0	0	0	0	0	0	0	0	0	0	0	1	24
241.4833984375	0.100029705899942	494558	96	12	stim12_sf2_pattern2_cont1_shape1.png	0	96	0	429.188226610563	429.288256316463	0.100029705899942	stim12_sf2_pattern2_cont1_shape1.png	2	2	1	1	1	1	0	0	0	0	0	0	0	0	0	0	0	0	1	24
241.9833984375	0.0999786809584293	495582	97	3	stim03_sf1_pattern1_cont2_shape2.png	0	97	0	429.688281594336	429.788260275294	0.0999786809584293	stim03_sf1_pattern1_cont2_shape2.png	1	1	2	2	1	4	0	0	0	0	0	0	0	0	0	0	0	0	1	24
242.4833984375	0.0999921703105429	496606	98	13	stim13_sf2_pattern2_cont1_shape2.png	0	98	0	430.188255055501	430.288247225812	0.0999921703105429	stim13_sf2_pattern2_cont1_shape2.png	2	2	1	2	1	1	0	0	0	0	0	0	0	0	0	0	0	0	1	24
242.9833984375	0.099998914986827	497630	99	14	stim14_sf2_pattern2_cont2_shape1.png	0	99	0	430.688234968096	430.788233883083	0.099998914986827	stim14_sf2_pattern2_cont2_shape1.png	2	2	2	1	1	1	0	0	0	0	0	0	0	0	0	0	0	0	1	24
243.4833984375	0.100011231352255	498654	100	1	stim01_sf1_pattern1_cont1_shape2.png	0	100	0	431.188215760431	431.288226991784	0.100011231352255	stim01_sf1_pattern1_cont1_shape2.png	1	1	1	2	1	4	0	0	0	0	0	0	0	0	0	0	0	0	1	24
243.9833984375	0.0999739890098681	499678	101	15	stim15_sf2_pattern2_cont2_shape2.png	0	101	0	431.68821913277	431.788193121779	0.0999739890098681	stim15_sf2_pattern2_cont2_shape2.png	2	2	2	2	1	1	0	0	0	0	0	0	0	0	0	0	0	0	1	24
244.4833984375	0.100004486675971	500702	102	0	stim00_sf1_pattern1_cont1_shape1.png	0	102	0	432.188196112897	432.288200599573	0.100004486675971	stim00_sf1_pattern1_cont1_shape1.png	1	1	1	1	1	4	0	0	0	0	0	0	0	0	0	0	0	0	1	24
244.9833984375	0.10000155420812	501726	103	2	stim02_sf1_pattern1_cont2_shape1.png	0	103	0	432.688204763677	432.788206317885	0.10000155420812	stim02_sf1_pattern1_cont2_shape1.png	1	1	2	1	1	4	0	0	0	0	0	0	0	0	0	0	0	0	1	24
245.4833984375	0.100001847454678	502750	104	13	stim13_sf2_pattern2_cont1_shape2.png	0	104	0	433.188179984323	433.288181831778	0.100001847454678	stim13_sf2_pattern2_cont1_shape2.png	2	2	1	2	1	1	0	0	0	0	0	0	0	0	0	0	0	0	1	24
245.9833984375	0.0999992082338395	503774	105	1	stim01_sf1_pattern1_cont1_shape2.png	0	105	0	433.688190981078	433.788190189312	0.0999992082338395	stim01_sf1_pattern1_cont1_shape2.png	1	1	1	2	1	4	0	0	0	0	0	0	0	0	0	0	0	0	1	24
246.4833984375	0.0999783877118716	504798	106	3	stim03_sf1_pattern1_cont2_shape2.png	0	106	0	434.188185849259	434.288164236971	0.0999783877118716	stim03_sf1_pattern1_cont2_shape2.png	1	1	2	2	1	4	0	0	0	0	0	0	0	0	0	0	0	0	1	24
246.9833984375	0.0999953960254061	505822	107	5	stim05_sf1_pattern2_cont1_shape2.png	0	107	0	434.688178371466	434.788173767491	0.0999953960254061	stim05_sf1_pattern2_cont1_shape2.png	1	2	1	2	1	2	0	0	0	0	0	0	0	0	0	0	0	0	1	24
247.4833984375	0.100004193429413	506846	108	2	stim02_sf1_pattern1_cont2_shape1.png	0	108	0	435.188151539384	435.288155732814	0.100004193429413	stim02_sf1_pattern1_cont2_shape1.png	1	1	2	1	1	4	0	0	0	0	0	0	0	0	0	0	0	0	1	24
247.9833984375	0.0999989149872818	507870	109	9	stim09_sf2_pattern1_cont1_shape2.png	0	109	0	435.688160190165	435.788159105152	0.0999989149872818	stim09_sf2_pattern1_cont1_shape2.png	2	1	1	2	1	3	0	0	0	0	0	0	0	0	0	0	0	0	1	24
248.4833984375	0.0999842526475732	508894	110	12	stim12_sf2_pattern2_cont1_shape1.png	0	110	0	436.188154471852	436.2881387245	0.0999842526475732	stim12_sf2_pattern2_cont1_shape1.png	2	2	1	1	1	1	0	0	0	0	0	0	0	0	0	0	0	0	1	24
248.9833984375	0.0999992082333847	509918	111	8	stim08_sf2_pattern1_cont1_shape1.png	0	111	1	436.688143768345	436.788142976578	0.0999992082333847	stim08_sf2_pattern1_cont1_shape1.png	2	1	1	1	1	3	0	0	0	0	0	0	0	0	0	0	0	0	1	24
249.4833984375	0.100003900181946	510942	112	8	stim08_sf2_pattern1_cont1_shape1.png	0	112	1	437.188119575485	437.288123475666	0.100003900181946	stim08_sf2_pattern1_cont1_shape1.png	2	1	1	1	1	3	0	0	0	0	0	0	0	0	0	0	0	0	1	24
249.9833984375	0.099998914986827	511966	113	13	stim13_sf2_pattern2_cont1_shape2.png	0	113	2	437.688127933018	437.788126848005	0.099998914986827	stim13_sf2_pattern2_cont1_shape2.png	2	2	1	2	1	1	0	0	0	0	0	0	0	0	0	0	0	0	1	24
250.4833984375	0.100000087973967	512990	114	5	stim05_sf1_pattern2_cont1_shape2.png	0	114	2	438.18810813886	438.288108226834	0.100000087973967	stim05_sf1_pattern2_cont1_shape2.png	1	2	1	2	1	2	0	0	0	0	0	0	0	0	0	0	0	0	1	24
250.9833984375	0.100004779922983	514014	115	10	stim10_sf2_pattern1_cont2_shape1.png	0	115	0	438.688109751717	438.78811453164	0.100004779922983	stim10_sf2_pattern1_cont2_shape1.png	2	1	2	1	1	3	0	0	0	0	0	0	0	0	0	0	0	0	1	24
251.4833984375	0.0999757484905786	515038	116	8	stim08_sf2_pattern1_cont1_shape1.png	0	116	0	439.188095822494	439.288071570985	0.0999757484905786	stim08_sf2_pattern1_cont1_shape1.png	2	1	1	1	1	3	0	0	0	0	0	0	0	0	0	0	0	0	1	24
251.9833984375	0.10000155420812	516062	117	7	stim07_sf1_pattern2_cont2_shape2.png	0	117	0	439.688094209637	439.788095763845	0.10000155420812	stim07_sf1_pattern2_cont2_shape2.png	1	2	2	2	1	2	0	0	0	0	0	0	0	0	0	0	0	0	1	24
252.4833984375	0.0999596199171719	517086	118	14	stim14_sf2_pattern2_cont2_shape1.png	0	118	0	440.188078227687	440.288037847604	0.0999596199171719	stim14_sf2_pattern2_cont2_shape1.png	2	2	2	1	1	1	0	0	0	0	0	0	0	0	0	0	0	0	1	24
252.9833984375	0.100005073169086	518110	119	0	stim00_sf1_pattern1_cont1_shape1.png	0	119	0	440.688061659243	440.788066732413	0.100005073169086	stim00_sf1_pattern1_cont1_shape1.png	1	1	1	1	1	4	0	0	0	0	0	0	0	0	0	0	0	0	1	24
253.4833984375	0.0999780944644044	519134	120	4	stim04_sf1_pattern2_cont1_shape1.png	0	120	0	441.188042744825	441.28802083929	0.0999780944644044	stim04_sf1_pattern2_cont1_shape1.png	1	2	1	1	1	2	0	0	0	0	0	0	0	0	0	0	0	0	1	24
253.9833984375	0.0999983284937116	520158	121	15	stim15_sf2_pattern2_cont2_shape2.png	0	121	0	441.68804553067	441.788043859163	0.0999983284937116	stim15_sf2_pattern2_cont2_shape2.png	2	2	2	2	1	1	0	0	0	0	0	0	0	0	0	0	0	0	1	24
254.4833984375	0.0999953960254061	521182	122	11	stim11_sf2_pattern1_cont2_shape2.png	0	122	0	442.188031601447	442.288026997473	0.0999953960254061	stim11_sf2_pattern1_cont2_shape2.png	2	1	2	2	1	3	0	0	0	0	0	0	0	0	0	0	0	0	1	24
254.9833984375	0.100000087973967	522206	123	6	stim06_sf1_pattern2_cont2_shape1.png	0	123	0	442.688035560279	442.788035648253	0.100000087973967	stim06_sf1_pattern2_cont2_shape1.png	1	2	2	1	1	2	0	0	0	0	0	0	0	0	0	0	0	0	1	24
255.4833984375	0.0999871851154239	523230	124	5	stim05_sf1_pattern2_cont1_shape2.png	0	124	0	443.188027495992	443.288014681108	0.0999871851154239	stim05_sf1_pattern2_cont1_shape2.png	1	2	1	2	1	2	0	0	0	0	0	0	0	0	0	0	0	0	1	24
255.9833984375	0.0999945162852782	524254	125	10	stim10_sf2_pattern1_cont2_shape1.png	0	125	0	443.68802998859	443.788024504875	0.0999945162852782	stim10_sf2_pattern1_cont2_shape1.png	2	1	2	1	1	3	0	0	0	0	0	0	0	0	0	0	0	0	1	24
256.4833984375	0.0999525819943301	525278	126	2	stim02_sf1_pattern1_cont2_shape1.png	0	126	0	444.188048316514	444.288000898508	0.0999525819943301	stim02_sf1_pattern1_cont2_shape1.png	1	1	2	1	1	4	0	0	0	0	0	0	0	0	0	0	0	0	1	24
256.9833984375	0.100005366416099	526302	127	6	stim06_sf1_pattern2_cont2_shape1.png	0	127	0	444.688028522356	444.788033888772	0.100005366416099	stim06_sf1_pattern2_cont2_shape1.png	1	2	2	1	1	2	0	0	0	0	0	0	0	0	0	0	0	0	1	24
257.4833984375	0.100035570835644	527326	128	8	stim08_sf2_pattern1_cont1_shape1.png	0	128	0	445.187974418323	445.288009989159	0.100035570835644	stim08_sf2_pattern1_cont1_shape1.png	2	1	1	1	1	3	0	0	0	0	0	0	0	0	0	0	0	0	1	24
257.9833984375	0.0999948095318359	528350	129	7	stim07_sf1_pattern2_cont2_shape2.png	0	129	0	445.688017085731	445.788011895263	0.0999948095318359	stim07_sf1_pattern2_cont2_shape2.png	1	2	2	2	1	2	0	0	0	0	0	0	0	0	0	0	0	0	1	24
258.48291015625	0.0999921703105429	529373	130	0	stim00_sf1_pattern1_cont1_shape1.png	0	130	0	446.187993772611	446.287985942922	0.0999921703105429	stim00_sf1_pattern1_cont1_shape1.png	1	1	1	1	1	4	0	0	0	0	0	0	0	0	0	0	0	0	1	24
258.98291015625	0.0999995014803972	530397	131	4	stim04_sf1_pattern2_cont1_shape1.png	0	131	0	446.687996558456	446.787996059936	0.0999995014803972	stim04_sf1_pattern2_cont1_shape1.png	1	2	1	1	1	2	0	0	0	0	0	0	0	0	0	0	0	0	1	24
259.48291015625	0.10000214070169	531421	132	13	stim13_sf2_pattern2_cont1_shape2.png	0	132	0	447.187972072349	447.28797421305	0.10000214070169	stim13_sf2_pattern2_cont1_shape2.png	2	2	1	2	1	1	0	0	0	0	0	0	0	0	0	0	0	0	1	24
259.98291015625	0.0999936365446956	532445	133	11	stim11_sf2_pattern1_cont2_shape2.png	0	133	0	447.687983655597	447.787977292141	0.0999936365446956	stim11_sf2_pattern1_cont2_shape2.png	2	1	2	2	1	3	0	0	0	0	0	0	0	0	0	0	0	0	1	24
260.48291015625	0.0999986217402693	533469	134	12	stim12_sf2_pattern2_cont1_shape1.png	0	134	0	448.187955357282	448.287953979022	0.0999986217402693	stim12_sf2_pattern2_cont1_shape1.png	2	2	1	1	1	1	0	0	0	0	0	0	0	0	0	0	0	0	1	24
260.98291015625	0.0999971555061165	534493	135	9	stim09_sf2_pattern1_cont1_shape2.png	0	135	0	448.687964887803	448.787962043309	0.0999971555061165	stim09_sf2_pattern1_cont1_shape2.png	2	1	1	2	1	3	0	0	0	0	0	0	0	0	0	0	0	0	1	24
261.48291015625	0.099998914986827	535517	136	3	stim03_sf1_pattern1_cont2_shape2.png	0	136	0	449.187941574683	449.287940489669	0.099998914986827	stim03_sf1_pattern1_cont2_shape2.png	1	1	2	2	1	4	0	0	0	0	0	0	0	0	0	0	0	0	1	24
261.98291015625	0.099997448753129	536541	137	15	stim15_sf2_pattern2_cont2_shape2.png	0	137	0	449.687949052476	449.787946501229	0.099997448753129	stim15_sf2_pattern2_cont2_shape2.png	2	2	2	2	1	1	0	0	0	0	0	0	0	0	0	0	0	0	1	24
262.48291015625	0.0999942230382658	537565	138	1	stim01_sf1_pattern1_cont1_shape2.png	0	138	0	450.187927792083	450.287922015122	0.0999942230382658	stim01_sf1_pattern1_cont1_shape2.png	1	1	1	2	1	4	0	0	0	0	0	0	0	0	0	0	0	0	1	24
262.98291015625	0.0999986217402693	538589	139	14	stim14_sf2_pattern2_cont2_shape1.png	0	139	0	450.687932630655	450.787931252396	0.0999986217402693	stim14_sf2_pattern2_cont2_shape1.png	2	2	2	1	1	1	0	0	0	0	0	0	0	0	0	0	0	0	1	24
263.48291015625	0.100012990832511	539613	140	12	stim12_sf2_pattern2_cont1_shape1.png	0	140	0	451.187908731042	451.287921721875	0.100012990832511	stim12_sf2_pattern2_cont1_shape1.png	2	2	1	1	1	1	0	0	0	0	0	0	0	0	0	0	0	0	1	24
263.98291015625	0.0999980352462444	540637	141	7	stim07_sf1_pattern2_cont2_shape2.png	0	141	0	451.687917381822	451.787915417069	0.0999980352462444	stim07_sf1_pattern2_cont2_shape2.png	1	2	2	2	1	2	0	0	0	0	0	0	0	0	0	0	0	0	1	24
264.48291015625	0.100000087973967	541661	142	9	stim09_sf2_pattern1_cont1_shape2.png	0	142	0	452.187896707924	452.287896795898	0.100000087973967	stim09_sf2_pattern1_cont1_shape2.png	2	1	1	2	1	3	0	0	0	0	0	0	0	0	0	0	0	0	1	24
264.98291015625	0.0999977419996867	542685	143	4	stim04_sf1_pattern2_cont1_shape1.png	0	143	0	452.687904185717	452.787901927717	0.0999977419996867	stim04_sf1_pattern2_cont1_shape1.png	1	2	1	1	1	2	0	0	0	0	0	0	0	0	0	0	0	0	1	24
265.48291015625	0.0999959825189762	543709	144	10	stim10_sf2_pattern1_cont2_shape1.png	0	144	0	453.187882045584	453.287878028103	0.0999959825189762	stim10_sf2_pattern1_cont2_shape1.png	2	1	2	1	1	3	0	0	0	0	0	0	0	0	0	0	0	0	1	24
265.98291015625	0.0999962757659887	544733	145	0	stim00_sf1_pattern1_cont1_shape1.png	0	145	0	453.687889523377	453.787885799143	0.0999962757659887	stim00_sf1_pattern1_cont1_shape1.png	1	1	1	1	1	4	0	0	0	0	0	0	0	0	0	0	0	0	1	24
266.48291015625	0.0999798539455696	545757	146	1	stim01_sf1_pattern1_cont1_shape2.png	0	146	0	454.187868262985	454.28784811693	0.0999798539455696	stim01_sf1_pattern1_cont1_shape2.png	1	1	1	2	1	4	0	0	0	0	0	0	0	0	0	0	0	0	1	24
266.98291015625	0.100010938105243	546781	147	14	stim14_sf2_pattern2_cont2_shape1.png	0	147	0	454.687850228308	454.787861166413	0.100010938105243	stim14_sf2_pattern2_cont2_shape1.png	2	2	2	1	1	1	0	0	0	0	0	0	0	0	0	0	0	0	1	24
267.48291015625	0.0999898243362622	547805	148	8	stim08_sf2_pattern1_cont1_shape1.png	0	148	0	455.18784861545	455.287838439786	0.0999898243362622	stim08_sf2_pattern1_cont1_shape1.png	2	1	1	1	1	3	0	0	0	0	0	0	0	0	0	0	0	0	1	24
267.98291015625	0.0999977419996867	548829	149	5	stim05_sf1_pattern2_cont1_shape2.png	0	149	0	455.687812985965	455.787810727965	0.0999977419996867	stim05_sf1_pattern2_cont1_shape2.png	1	2	1	2	1	2	0	0	0	0	0	0	0	0	0	0	0	0	1	24
268.48291015625	0.100002433948248	549853	150	6	stim06_sf1_pattern2_cont2_shape1.png	0	150	0	456.187796417521	456.28779885147	0.100002433948248	stim06_sf1_pattern2_cont2_shape1.png	1	2	2	1	1	2	0	0	0	0	0	0	0	0	0	0	0	0	1	24
268.98291015625	0.0999977419996867	550877	151	2	stim02_sf1_pattern1_cont2_shape1.png	0	151	0	456.687798616872	456.787796358872	0.0999977419996867	stim02_sf1_pattern1_cont2_shape1.png	1	1	2	1	1	4	0	0	0	0	0	0	0	0	0	0	0	0	1	24
269.48291015625	0.100005952909669	551901	152	3	stim03_sf1_pattern1_cont2_shape2.png	0	152	0	457.187781461935	457.287787414845	0.100005952909669	stim03_sf1_pattern1_cont2_shape2.png	1	1	2	2	1	4	0	0	0	0	0	0	0	0	0	0	0	0	1	24
269.98291015625	0.0999948095318359	552925	153	15	stim15_sf2_pattern2_cont2_shape2.png	0	153	0	457.687776036869	457.787770846401	0.0999948095318359	stim15_sf2_pattern2_cont2_shape2.png	2	2	2	2	1	1	0	0	0	0	0	0	0	0	0	0	0	0	1	24
270.48291015625	0.0999968622591041	553949	154	11	stim11_sf2_pattern1_cont2_shape2.png	0	154	0	458.187788206611	458.287785068871	0.0999968622591041	stim11_sf2_pattern1_cont2_shape2.png	2	1	2	2	1	3	0	0	0	0	0	0	0	0	0	0	0	0	1	24
270.98291015625	0.0999965690125464	554973	155	13	stim13_sf2_pattern2_cont1_shape2.png	0	155	0	458.68779978986	458.787796358872	0.0999965690125464	stim13_sf2_pattern2_cont1_shape2.png	2	2	1	2	1	1	0	0	0	0	0	0	0	0	0	0	0	0	1	24
271.48291015625	0.0999678308271541	555997	156	15	stim15_sf2_pattern2_cont2_shape2.png	0	156	0	459.187793191807	459.287761022634	0.0999678308271541	stim15_sf2_pattern2_cont2_shape2.png	2	2	2	2	1	1	0	0	0	0	0	0	0	0	0	0	0	0	1	24
271.98291015625	0.0999945162848235	557021	157	5	stim05_sf1_pattern2_cont1_shape2.png	0	157	0	459.687791872196	459.787786388481	0.0999945162848235	stim05_sf1_pattern2_cont1_shape2.png	1	2	1	2	1	2	0	0	0	0	0	0	0	0	0	0	0	0	1	24
272.48291015625	0.0999889445956796	558045	158	4	stim04_sf1_pattern2_cont1_shape1.png	0	158	0	460.187804335185	460.287793279781	0.0999889445956796	stim04_sf1_pattern2_cont1_shape1.png	1	2	1	1	1	2	0	0	0	0	0	0	0	0	0	0	0	0	1	24
272.98291015625	0.100003020441818	559069	159	14	stim14_sf2_pattern2_cont2_shape1.png	0	159	0	460.687791872196	460.787794892638	0.100003020441818	stim14_sf2_pattern2_cont2_shape1.png	2	2	2	1	1	1	0	0	0	0	0	0	0	0	0	0	0	0	1	24
273.48291015625	0.100010938105243	560093	160	12	stim12_sf2_pattern2_cont1_shape1.png	0	160	0	461.187751550763	461.287762488868	0.100010938105243	stim12_sf2_pattern2_cont1_shape1.png	2	2	1	1	1	1	0	0	0	0	0	0	0	0	0	0	0	0	1	24
273.98291015625	0.0999948095318359	561117	161	1	stim01_sf1_pattern1_cont1_shape2.png	0	161	0	461.687770758427	461.787765567959	0.0999948095318359	stim01_sf1_pattern1_cont1_shape2.png	1	1	1	2	1	4	0	0	0	0	0	0	0	0	0	0	0	0	1	24
274.48291015625	0.0999895310897045	562141	162	7	stim07_sf1_pattern2_cont2_shape2.png	0	162	0	462.187757415698	462.287746946788	0.0999895310897045	stim07_sf1_pattern2_cont2_shape2.png	1	2	2	2	1	2	0	0	0	0	0	0	0	0	0	0	0	0	1	24
274.98291015625	0.0999936365446956	563165	163	9	stim09_sf2_pattern1_cont1_shape2.png	0	163	0	462.687756096087	462.787749732632	0.0999936365446956	stim09_sf2_pattern1_cont1_shape2.png	2	1	1	2	1	3	0	0	0	0	0	0	0	0	0	0	0	0	1	24
275.48291015625	0.0999986217402693	564189	164	13	stim13_sf2_pattern2_cont1_shape2.png	0	164	0	463.18774627232	463.28774489406	0.0999986217402693	stim13_sf2_pattern2_cont1_shape2.png	2	2	1	2	1	1	0	0	0	0	0	0	0	0	0	0	0	0	1	24
275.982421875	0.100000087973967	565212	165	8	stim08_sf2_pattern1_cont1_shape1.png	0	165	0	463.687735275566	463.787735363539	0.100000087973967	stim08_sf2_pattern1_cont1_shape1.png	2	1	1	1	1	3	0	0	0	0	0	0	0	0	0	0	0	0	1	24
276.482421875	0.100016803040944	566236	166	6	stim06_sf1_pattern2_cont2_shape1.png	0	166	0	464.187712842186	464.287729645227	0.100016803040944	stim06_sf1_pattern2_cont2_shape1.png	1	2	2	1	1	2	0	0	0	0	0	0	0	0	0	0	0	0	1	24
276.982421875	0.0999977419996867	567260	167	0	stim00_sf1_pattern1_cont1_shape1.png	0	167	0	464.687723252447	464.787720994447	0.0999977419996867	stim00_sf1_pattern1_cont1_shape1.png	1	1	1	1	1	4	0	0	0	0	0	0	0	0	0	0	0	0	1	24
277.482421875	0.100004193428958	568284	168	10	stim10_sf2_pattern1_cont2_shape1.png	0	168	0	465.187700525821	465.28770471925	0.100004193428958	stim10_sf2_pattern1_cont2_shape1.png	2	1	2	1	1	3	0	0	0	0	0	0	0	0	0	0	0	0	1	24
277.982421875	0.0999956892719638	569308	169	3	stim03_sf1_pattern1_cont2_shape2.png	0	169	0	465.687709763095	465.787705452367	0.0999956892719638	stim03_sf1_pattern1_cont2_shape2.png	1	1	2	2	1	4	0	0	0	0	0	0	0	0	0	0	0	0	1	24
278.482421875	0.100001847455133	570332	170	11	stim11_sf2_pattern1_cont2_shape2.png	0	170	0	466.18768322426	466.287685071715	0.100001847455133	stim11_sf2_pattern1_cont2_shape2.png	2	1	2	2	1	3	0	0	0	0	0	0	0	0	0	0	0	0	1	24
278.982421875	0.0999995014808519	571356	171	2	stim02_sf1_pattern1_cont2_shape1.png	0	171	0	466.687692461534	466.787691963015	0.0999995014808519	stim02_sf1_pattern1_cont2_shape1.png	1	1	2	1	1	4	0	0	0	0	0	0	0	0	0	0	0	0	1	24
308.9482421875	0.0999886513495767	632726	172	7	stim07_sf1_pattern2_cont2_shape2.png	1	0	0	496.65391746921	496.753906120559	0.0999886513495767	stim07_sf1_pattern2_cont2_shape2.png	1	2	2	2	1	2	0	0	0	0	0	0	0	0	0	0	0	0	1	24
309.4482421875	0.099977507971289	633750	173	2	stim02_sf1_pattern1_cont2_shape1.png	1	1	0	497.153871282841	497.253848790812	0.099977507971289	stim02_sf1_pattern1_cont2_shape1.png	1	1	2	1	1	4	0	0	0	0	0	0	0	0	0	0	0	0	1	24
309.9482421875	0.0999986217402693	634774	174	14	stim14_sf2_pattern2_cont2_shape1.png	1	2	0	497.653876121412	497.753874743153	0.0999986217402693	stim14_sf2_pattern2_cont2_shape1.png	2	2	2	1	1	1	0	0	0	0	0	0	0	0	0	0	0	0	1	24
310.4482421875	0.100014750313221	635798	175	4	stim04_sf1_pattern2_cont1_shape1.png	1	3	0	498.153845477123	498.253860227436	0.100014750313221	stim04_sf1_pattern2_cont1_shape1.png	1	2	1	1	1	2	0	0	0	0	0	0	0	0	0	0	0	0	1	24
310.9482421875	0.100019149015679	636822	176	6	stim06_sf1_pattern2_cont2_shape1.png	1	4	0	498.65383887907	498.753858028086	0.100019149015679	stim06_sf1_pattern2_cont2_shape1.png	1	2	2	1	1	2	0	0	0	0	0	0	0	0	0	0	0	0	1	24
311.4482421875	0.0999992082338395	637846	177	0	stim00_sf1_pattern1_cont1_shape1.png	1	5	0	499.153839025693	499.253838233927	0.0999992082338395	stim00_sf1_pattern1_cont1_shape1.png	1	1	1	1	1	4	0	0	0	0	0	0	0	0	0	0	0	0	1	24
311.9482421875	0.100005952909669	638870	178	15	stim15_sf2_pattern2_cont2_shape2.png	1	6	0	499.653847383227	499.753853336137	0.100005952909669	stim15_sf2_pattern2_cont2_shape2.png	2	2	2	2	1	1	0	0	0	0	0	0	0	0	0	0	0	0	1	24
312.4482421875	0.100027653172219	639894	179	11	stim11_sf2_pattern1_cont2_shape2.png	1	7	0	500.153807648287	500.253835301459	0.100027653172219	stim11_sf2_pattern1_cont2_shape2.png	2	1	2	2	1	3	0	0	0	0	0	0	0	0	0	0	0	0	1	24
312.9482421875	0.0999898243362622	640918	180	1	stim01_sf1_pattern1_cont1_shape2.png	1	8	0	500.653849142708	500.753838967044	0.0999898243362622	stim01_sf1_pattern1_cont1_shape2.png	1	1	1	2	1	4	0	0	0	0	0	0	0	0	0	0	0	0	1	24
313.4482421875	0.0999924635575553	641942	181	3	stim03_sf1_pattern1_cont2_shape2.png	1	9	0	501.153818205171	501.253810668729	0.0999924635575553	stim03_sf1_pattern1_cont2_shape2.png	1	1	2	2	1	4	0	0	0	0	0	0	0	0	0	0	0	0	1	24
313.9482421875	0.100002727194806	642966	182	13	stim13_sf2_pattern2_cont1_shape2.png	1	10	0	501.653847676474	501.753850403669	0.100002727194806	stim13_sf2_pattern2_cont1_shape2.png	2	2	1	2	1	1	0	0	0	0	0	0	0	0	0	0	0	0	1	24
314.4482421875	0.0999933432981379	643990	183	5	stim05_sf1_pattern2_cont1_shape2.png	1	11	0	502.153819964652	502.25381330795	0.0999933432981379	stim05_sf1_pattern2_cont1_shape2.png	1	2	1	2	1	2	0	0	0	0	0	0	0	0	0	0	0	0	1	24
314.9482421875	0.0999974487526742	645014	184	8	stim08_sf2_pattern1_cont1_shape1.png	1	12	0	502.653823630237	502.75382107899	0.0999974487526742	stim08_sf2_pattern1_cont1_shape1.png	2	1	1	1	1	3	0	0	0	0	0	0	0	0	0	0	0	0	1	24
315.4482421875	0.100019149015679	646038	185	10	stim10_sf2_pattern1_cont2_shape1.png	1	13	0	503.153797091402	503.253816240418	0.100019149015679	stim10_sf2_pattern1_cont2_shape1.png	2	1	2	1	1	3	0	0	0	0	0	0	0	0	0	0	0	0	1	24
315.9482421875	0.0999959825189762	647062	186	9	stim09_sf2_pattern1_cont1_shape2.png	1	14	0	503.653809554391	503.75380553691	0.0999959825189762	stim09_sf2_pattern1_cont1_shape2.png	2	1	1	2	1	3	0	0	0	0	0	0	0	0	0	0	0	0	1	24
316.4482421875	0.0999965690125464	648086	187	12	stim12_sf2_pattern2_cont1_shape1.png	1	15	0	504.153803249585	504.253799818598	0.0999965690125464	stim12_sf2_pattern2_cont1_shape1.png	2	2	1	1	1	1	0	0	0	0	0	0	0	0	0	0	0	0	1	24
316.9482421875	0.0999968622595588	649110	188	5	stim05_sf1_pattern2_cont1_shape2.png	1	16	0	504.653794892051	504.753791754311	0.0999968622595588	stim05_sf1_pattern2_cont1_shape2.png	1	2	1	2	1	2	0	0	0	0	0	0	0	0	0	0	0	0	1	24
317.4482421875	0.0999807336856975	650134	189	9	stim09_sf2_pattern1_cont1_shape2.png	1	17	0	505.153789173739	505.253769907425	0.0999807336856975	stim09_sf2_pattern1_cont1_shape2.png	2	1	1	2	1	3	0	0	0	0	0	0	0	0	0	0	0	0	1	24
317.9482421875	0.0999986217398146	651158	190	6	stim06_sf1_pattern2_cont2_shape1.png	1	18	0	505.653777883738	505.753776505478	0.0999986217398146	stim06_sf1_pattern2_cont2_shape1.png	1	2	2	1	1	2	0	0	0	0	0	0	0	0	0	0	0	0	1	24
318.4482421875	0.100012404339395	652182	191	13	stim13_sf2_pattern2_cont1_shape2.png	1	19	1	506.15375984906	506.253772253399	0.100012404339395	stim13_sf2_pattern2_cont1_shape2.png	2	2	1	2	1	1	0	0	0	0	0	0	0	0	0	0	0	0	1	24
318.9482421875	0.10000038122098	653206	192	13	stim13_sf2_pattern2_cont1_shape2.png	1	20	1	506.653761461917	506.753761843138	0.10000038122098	stim13_sf2_pattern2_cont1_shape2.png	2	2	1	2	1	1	0	0	0	0	0	0	0	0	0	0	0	0	1	24
319.4482421875	0.100005073169541	654230	193	3	stim03_sf1_pattern1_cont2_shape2.png	1	21	2	507.153737855551	507.25374292872	0.100005073169541	stim03_sf1_pattern1_cont2_shape2.png	1	1	2	2	1	4	0	0	0	0	0	0	0	0	0	0	0	0	1	24
319.9482421875	0.0999898243362622	655254	194	5	stim05_sf1_pattern2_cont1_shape2.png	1	22	2	507.653754423995	507.753744248331	0.0999898243362622	stim05_sf1_pattern2_cont1_shape2.png	1	2	1	2	1	2	0	0	0	0	0	0	0	0	0	0	0	0	1	24
320.4482421875	0.0999561009552963	656278	195	13	stim13_sf2_pattern2_cont1_shape2.png	1	23	0	508.153719967497	508.253676068452	0.0999561009552963	stim13_sf2_pattern2_cont1_shape2.png	2	2	1	2	1	1	0	0	0	0	0	0	0	0	0	0	0	0	1	24
320.9482421875	0.0999980352466991	657302	196	14	stim14_sf2_pattern2_cont2_shape1.png	1	24	0	508.653734483213	508.753732518459	0.0999980352466991	stim14_sf2_pattern2_cont2_shape1.png	2	2	2	1	1	1	0	0	0	0	0	0	0	0	0	0	0	0	1	24
321.4482421875	0.10000038122098	658326	197	1	stim01_sf1_pattern1_cont1_shape2.png	1	25	0	509.153709117365	509.253709498586	0.10000038122098	stim01_sf1_pattern1_cont1_shape2.png	1	1	1	2	1	4	0	0	0	0	0	0	0	0	0	0	0	0	1	24
321.9482421875	0.0999986217402693	659350	198	10	stim10_sf2_pattern1_cont2_shape1.png	1	26	0	509.653718941133	509.753717562873	0.0999986217402693	stim10_sf2_pattern1_cont2_shape1.png	2	1	2	1	1	3	0	0	0	0	0	0	0	0	0	0	0	0	1	24
322.4482421875	0.0999731092692855	660374	199	7	stim07_sf1_pattern2_cont2_shape2.png	1	27	0	510.153717328275	510.253690437545	0.0999731092692855	stim07_sf1_pattern2_cont2_shape2.png	1	2	2	2	1	2	0	0	0	0	0	0	0	0	0	0	0	0	1	24
322.9482421875	0.0999959825189762	661398	200	15	stim15_sf2_pattern2_cont2_shape2.png	1	28	0	510.653701346325	510.753697328844	0.0999959825189762	stim15_sf2_pattern2_cont2_shape2.png	2	2	2	2	1	1	0	0	0	0	0	0	0	0	0	0	0	0	1	24
323.44775390625	0.100023840963786	662421	201	12	stim12_sf2_pattern2_cont1_shape1.png	1	29	0	511.153658092424	511.253681933388	0.100023840963786	stim12_sf2_pattern2_cont1_shape1.png	2	2	1	1	1	1	0	0	0	0	0	0	0	0	0	0	0	0	1	24
323.94775390625	0.100008298884404	663445	202	4	stim04_sf1_pattern2_cont1_shape1.png	1	30	0	511.653676713595	511.753685012479	0.100008298884404	stim04_sf1_pattern2_cont1_shape1.png	1	2	1	1	1	2	0	0	0	0	0	0	0	0	0	0	0	0	1	24
324.44775390625	0.0999918770635304	664469	203	8	stim08_sf2_pattern1_cont1_shape1.png	1	31	0	512.153638444889	512.253630321953	0.0999918770635304	stim08_sf2_pattern1_cont1_shape1.png	2	1	1	1	1	3	0	0	0	0	0	0	0	0	0	0	0	0	1	24
324.94775390625	0.100015923300361	665493	204	11	stim11_sf2_pattern1_cont2_shape2.png	1	32	0	512.653632140083	512.753648063383	0.100015923300361	stim11_sf2_pattern1_cont2_shape2.png	2	1	2	2	1	3	0	0	0	0	0	0	0	0	0	0	0	0	1	24
325.44775390625	0.100014457066663	666517	205	3	stim03_sf1_pattern1_cont2_shape2.png	1	33	0	513.153612932418	513.253627389485	0.100014457066663	stim03_sf1_pattern1_cont2_shape2.png	1	1	2	2	1	4	0	0	0	0	0	0	0	0	0	0	0	0	1	24
325.94775390625	0.0999997947269549	667541	206	0	stim00_sf1_pattern1_cont1_shape1.png	1	34	0	513.65362422242	513.753624017147	0.0999997947269549	stim00_sf1_pattern1_cont1_shape1.png	1	1	1	1	1	4	0	0	0	0	0	0	0	0	0	0	0	0	1	24
326.44775390625	0.0999865986218538	668565	207	2	stim02_sf1_pattern1_cont2_shape1.png	1	35	0	514.153608826963	514.253595425585	0.0999865986218538	stim02_sf1_pattern1_cont2_shape1.png	1	1	2	1	1	4	0	0	0	0	0	0	0	0	0	0	0	0	1	24
326.94775390625	0.100021494989505	669589	208	15	stim15_sf2_pattern2_cont2_shape2.png	1	36	0	514.653604281638	514.753625776627	0.100021494989505	stim15_sf2_pattern2_cont2_shape2.png	2	2	2	2	1	1	0	0	0	0	0	0	0	0	0	0	0	0	1	24
327.44775390625	0.100002727194806	670613	209	7	stim07_sf1_pattern2_cont2_shape2.png	1	37	0	515.153614985146	515.253617712341	0.100002727194806	stim07_sf1_pattern2_cont2_shape2.png	1	2	2	2	1	2	0	0	0	0	0	0	0	0	0	0	0	0	1	24
327.94775390625	0.100005073169541	671637	210	10	stim10_sf2_pattern1_cont2_shape1.png	1	38	0	515.653612492548	515.753617565717	0.100005073169541	stim10_sf2_pattern1_cont2_shape1.png	2	1	2	1	1	3	0	0	0	0	0	0	0	0	0	0	0	0	1	24
328.44775390625	0.100018562521655	672661	211	11	stim11_sf2_pattern1_cont2_shape2.png	1	39	0	516.153590938909	516.253609501431	0.100018562521655	stim11_sf2_pattern1_cont2_shape2.png	2	1	2	2	1	3	0	0	0	0	0	0	0	0	0	0	0	0	1	24
328.94775390625	0.0999936365446956	673685	212	8	stim08_sf2_pattern1_cont1_shape1.png	1	40	0	516.653628034628	516.753621671172	0.0999936365446956	stim08_sf2_pattern1_cont1_shape1.png	2	1	1	1	1	3	0	0	0	0	0	0	0	0	0	0	0	0	1	24
329.44775390625	0.0999619658914526	674709	213	12	stim12_sf2_pattern2_cont1_shape1.png	1	41	0	517.153602082287	517.253564048178	0.0999619658914526	stim12_sf2_pattern2_cont1_shape1.png	2	2	1	1	1	1	0	0	0	0	0	0	0	0	0	0	0	0	1	24
329.94775390625	0.09990126380535	675733	214	6	stim06_sf1_pattern2_cont2_shape1.png	1	42	0	517.653609266833	517.753510530639	0.09990126380535	stim06_sf1_pattern2_cont2_shape1.png	1	2	2	1	1	2	0	0	0	0	0	0	0	0	0	0	0	0	1	24
330.44775390625	0.100015043560234	676757	215	9	stim09_sf2_pattern1_cont1_shape2.png	1	43	0	518.153561907477	518.253576951037	0.100015043560234	stim09_sf2_pattern1_cont1_shape2.png	2	1	1	2	1	3	0	0	0	0	0	0	0	0	0	0	0	0	1	24
330.94775390625	0.100003313688831	677781	216	1	stim01_sf1_pattern1_cont1_shape2.png	1	44	0	518.653589032805	518.753592346493	0.100003313688831	stim01_sf1_pattern1_cont1_shape2.png	1	1	1	2	1	4	0	0	0	0	0	0	0	0	0	0	0	0	1	24
331.44775390625	0.100038796550507	678805	217	2	stim02_sf1_pattern1_cont2_shape1.png	1	45	0	519.153521732666	519.253560529217	0.100038796550507	stim02_sf1_pattern1_cont2_shape1.png	1	1	2	1	1	4	0	0	0	0	0	0	0	0	0	0	0	0	1	24
331.94775390625	0.0999986217402693	679829	218	14	stim14_sf2_pattern2_cont2_shape1.png	1	46	0	519.653571731244	519.753570352984	0.0999986217402693	stim14_sf2_pattern2_cont2_shape1.png	2	2	2	1	1	1	0	0	0	0	0	0	0	0	0	0	0	0	1	24
332.44775390625	0.0999983284932568	680853	219	5	stim05_sf1_pattern2_cont1_shape2.png	1	47	0	520.153548124877	520.253546453371	0.0999983284932568	stim05_sf1_pattern2_cont1_shape2.png	1	2	1	2	1	2	0	0	0	0	0	0	0	0	0	0	0	0	1	24
332.94775390625	0.0999962757659887	681877	220	4	stim04_sf1_pattern2_cont1_shape1.png	1	48	0	520.653556775658	520.753553051424	0.0999962757659887	stim04_sf1_pattern2_cont1_shape1.png	1	2	1	1	1	2	0	0	0	0	0	0	0	0	0	0	0	0	1	24
333.44775390625	0.099994223037811	682901	221	13	stim13_sf2_pattern2_cont1_shape2.png	1	49	0	521.153549591112	521.253543814149	0.099994223037811	stim13_sf2_pattern2_cont1_shape2.png	2	2	1	2	1	1	0	0	0	0	0	0	0	0	0	0	0	0	1	24
333.94775390625	0.0999725227757153	683925	222	3	stim03_sf1_pattern1_cont2_shape2.png	1	50	0	521.653543579552	521.753516102328	0.0999725227757153	stim03_sf1_pattern1_cont2_shape2.png	1	1	2	2	1	4	0	0	0	0	0	0	0	0	0	0	0	0	1	24
334.44775390625	0.100000967714095	684949	223	0	stim00_sf1_pattern1_cont1_shape1.png	1	51	0	522.153515867731	522.253516835445	0.100000967714095	stim00_sf1_pattern1_cont1_shape1.png	1	1	1	1	1	4	0	0	0	0	0	0	0	0	0	0	0	0	1	24
334.94775390625	0.0999980352462444	685973	224	15	stim15_sf2_pattern2_cont2_shape2.png	1	52	0	522.653526864485	522.753524899731	0.0999980352462444	stim15_sf2_pattern2_cont2_shape2.png	2	2	2	2	1	1	0	0	0	0	0	0	0	0	0	0	0	0	1	24
335.44775390625	0.100026480185079	686997	225	13	stim13_sf2_pattern2_cont1_shape2.png	1	53	1	523.153471880712	523.253498360897	0.100026480185079	stim13_sf2_pattern2_cont1_shape2.png	2	2	1	2	1	1	0	0	0	0	0	0	0	0	0	0	0	0	1	24
335.94775390625	0.100025307197939	688021	226	13	stim13_sf2_pattern2_cont1_shape2.png	1	54	1	523.653486103181	523.753511410379	0.100025307197939	stim13_sf2_pattern2_cont1_shape2.png	2	2	1	2	1	1	0	0	0	0	0	0	0	0	0	0	0	0	1	24
336.44775390625	0.0999986217398146	689045	227	8	stim08_sf2_pattern1_cont1_shape1.png	1	55	2	524.153485370065	524.253483991804	0.0999986217398146	stim08_sf2_pattern1_cont1_shape1.png	2	1	1	1	1	3	0	0	0	0	0	0	0	0	0	0	0	0	1	24
336.94775390625	0.099997448753129	690069	228	4	stim04_sf1_pattern2_cont1_shape1.png	1	56	2	524.653497246559	524.753494695312	0.099997448753129	stim04_sf1_pattern2_cont1_shape1.png	1	2	1	1	1	2	0	0	0	0	0	0	0	0	0	0	0	0	1	24
337.44775390625	0.0999962757659887	691093	229	2	stim02_sf1_pattern1_cont2_shape1.png	1	57	0	525.153489182273	525.253485458039	0.0999962757659887	stim02_sf1_pattern1_cont2_shape1.png	1	1	2	1	1	4	0	0	0	0	0	0	0	0	0	0	0	0	1	24
337.94775390625	0.0999971555061165	692117	230	4	stim04_sf1_pattern2_cont1_shape1.png	1	58	0	525.653486103181	525.753483258688	0.0999971555061165	stim04_sf1_pattern2_cont1_shape1.png	1	2	1	1	1	2	0	0	0	0	0	0	0	0	0	0	0	0	1	24
338.44775390625	0.0999757484901238	693141	231	6	stim06_sf1_pattern2_cont2_shape1.png	1	59	0	526.153476865908	526.253452614398	0.0999757484901238	stim06_sf1_pattern2_cont2_shape1.png	1	2	2	1	1	2	0	0	0	0	0	0	0	0	0	0	0	0	1	24
338.94775390625	0.0999707632950049	694165	232	14	stim14_sf2_pattern2_cont2_shape1.png	1	60	0	526.653470561102	526.753441324397	0.0999707632950049	stim14_sf2_pattern2_cont2_shape1.png	2	2	2	1	1	1	0	0	0	0	0	0	0	0	0	0	0	0	1	24
339.44775390625	0.0999992082333847	695189	233	5	stim05_sf1_pattern2_cont1_shape2.png	1	61	0	527.153440210059	527.253439418292	0.0999992082333847	stim05_sf1_pattern2_cont1_shape2.png	1	2	1	2	1	2	0	0	0	0	0	0	0	0	0	0	0	0	1	24
339.94775390625	0.100039676290635	696213	234	0	stim00_sf1_pattern1_cont1_shape1.png	1	62	0	527.653394023689	527.75343369998	0.100039676290635	stim00_sf1_pattern1_cont1_shape1.png	1	1	1	1	1	4	0	0	0	0	0	0	0	0	0	0	0	0	1	24
340.44775390625	0.100047300707047	697237	235	7	stim07_sf1_pattern2_cont2_shape2.png	1	63	0	528.153394463559	528.253441764266	0.100047300707047	stim07_sf1_pattern2_cont2_shape2.png	1	2	2	2	1	2	0	0	0	0	0	0	0	0	0	0	0	0	1	24
340.947265625	0.100009765118102	698260	236	3	stim03_sf1_pattern1_cont2_shape2.png	1	64	0	528.653392557455	528.753402322573	0.100009765118102	stim03_sf1_pattern1_cont2_shape2.png	1	1	2	2	1	4	0	0	0	0	0	0	0	0	0	0	0	0	1	24
341.447265625	0.0999918770639852	699284	237	9	stim09_sf2_pattern1_cont1_shape2.png	1	65	0	529.153375989012	529.253367866076	0.0999918770639852	stim09_sf2_pattern1_cont1_shape2.png	2	1	1	2	1	3	0	0	0	0	0	0	0	0	0	0	0	0	1	24
341.947265625	0.100012990832965	700308	238	8	stim08_sf2_pattern1_cont1_shape1.png	1	66	0	529.653364112517	529.75337710335	0.100012990832965	stim08_sf2_pattern1_cont1_shape1.png	2	1	1	1	1	3	0	0	0	0	0	0	0	0	0	0	0	0	1	24
342.447265625	0.0999971555061165	701332	239	11	stim11_sf2_pattern1_cont2_shape2.png	1	67	0	530.153385959402	530.253383114909	0.0999971555061165	stim11_sf2_pattern1_cont2_shape2.png	2	1	2	2	1	3	0	0	0	0	0	0	0	0	0	0	0	0	1	24
342.947265625	0.100004486675971	702356	240	10	stim10_sf2_pattern1_cont2_shape1.png	1	68	0	530.653386692519	530.753391179195	0.100004486675971	stim10_sf2_pattern1_cont2_shape1.png	2	1	2	1	1	3	0	0	0	0	0	0	0	0	0	0	0	0	1	24
343.447265625	0.0999997947274096	703380	241	1	stim01_sf1_pattern1_cont1_shape2.png	1	69	0	531.153368071348	531.253367866076	0.0999997947274096	stim01_sf1_pattern1_cont1_shape2.png	1	1	1	2	1	4	0	0	0	0	0	0	0	0	0	0	0	0	1	24
343.947265625	0.100005366416099	704404	242	13	stim13_sf2_pattern2_cont1_shape2.png	1	70	0	531.653374376154	531.75337974257	0.100005366416099	stim13_sf2_pattern2_cont1_shape2.png	2	2	1	2	1	1	0	0	0	0	0	0	0	0	0	0	0	0	1	24
344.447265625	0.0999821999198502	705428	243	12	stim12_sf2_pattern2_cont1_shape1.png	1	71	0	532.153390944598	532.253373144518	0.0999821999198502	stim12_sf2_pattern2_cont1_shape1.png	2	2	1	1	1	1	0	0	0	0	0	0	0	0	0	0	0	0	1	24
344.947265625	0.0999634321251506	706452	244	15	stim15_sf2_pattern2_cont2_shape2.png	1	72	0	532.653393143949	532.753356576074	0.0999634321251506	stim15_sf2_pattern2_cont2_shape2.png	2	2	2	2	1	1	0	0	0	0	0	0	0	0	0	0	0	0	1	24
345.447265625	0.099957567189449	707476	245	12	stim12_sf2_pattern2_cont1_shape1.png	1	73	0	533.153369830829	533.253327398018	0.099957567189449	stim12_sf2_pattern2_cont1_shape1.png	2	2	1	1	1	1	0	0	0	0	0	0	0	0	0	0	0	0	1	24
345.947265625	0.0999983284932568	708500	246	13	stim13_sf2_pattern2_cont1_shape2.png	1	74	0	533.653362059789	533.753360388282	0.0999983284932568	stim13_sf2_pattern2_cont1_shape2.png	2	2	1	2	1	1	0	0	0	0	0	0	0	0	0	0	0	0	1	24
346.447265625	0.100000674467537	709524	247	8	stim08_sf2_pattern1_cont1_shape1.png	1	75	0	534.153361619919	534.253362294387	0.100000674467537	stim08_sf2_pattern1_cont1_shape1.png	2	1	1	1	1	3	0	0	0	0	0	0	0	0	0	0	0	0	1	24
346.947265625	0.0999956892724185	710548	248	0	stim00_sf1_pattern1_cont1_shape1.png	1	76	0	534.65334827719	534.753343966462	0.0999956892724185	stim00_sf1_pattern1_cont1_shape1.png	1	1	1	1	1	4	0	0	0	0	0	0	0	0	0	0	0	0	1	24
347.447265625	0.100006539403239	711572	249	11	stim11_sf2_pattern1_cont2_shape2.png	1	77	0	535.153319392381	535.253325931784	0.100006539403239	stim11_sf2_pattern1_cont2_shape2.png	2	1	2	2	1	3	0	0	0	0	0	0	0	0	0	0	0	0	1	24
347.947265625	0.0999942230382658	712596	250	3	stim03_sf1_pattern1_cont2_shape2.png	1	78	1	535.653335081084	535.753329304122	0.0999942230382658	stim03_sf1_pattern1_cont2_shape2.png	1	1	2	2	1	4	0	0	0	0	0	0	0	0	0	0	0	0	1	24
348.447265625	0.100012697585953	713620	251	3	stim03_sf1_pattern1_cont2_shape2.png	1	79	1	536.15330942199	536.253322119576	0.100012697585953	stim03_sf1_pattern1_cont2_shape2.png	1	1	2	2	1	4	0	0	0	0	0	0	0	0	0	0	0	0	1	24
348.947265625	0.0999968622595588	714644	252	2	stim02_sf1_pattern1_cont2_shape1.png	1	80	2	536.653316606536	536.753313468796	0.0999968622595588	stim02_sf1_pattern1_cont2_shape1.png	1	1	2	1	1	4	0	0	0	0	0	0	0	0	0	0	0	0	1	24
349.447265625	0.100009765118102	715668	253	6	stim06_sf1_pattern2_cont2_shape1.png	1	81	2	537.153296225885	537.253305991003	0.100009765118102	stim06_sf1_pattern2_cont2_shape1.png	1	2	2	1	1	2	0	0	0	0	0	0	0	0	0	0	0	0	1	24
349.947265625	0.0999980352466991	716692	254	5	stim05_sf1_pattern2_cont1_shape2.png	1	82	0	537.653302237444	537.75330027269	0.0999980352466991	stim05_sf1_pattern2_cont1_shape2.png	1	2	1	2	1	2	0	0	0	0	0	0	0	0	0	0	0	0	1	24
350.447265625	0.0999942230382658	717716	255	9	stim09_sf2_pattern1_cont1_shape2.png	1	83	0	538.153298278612	538.25329250165	0.0999942230382658	stim09_sf2_pattern1_cont1_shape2.png	2	1	1	2	1	3	0	0	0	0	0	0	0	0	0	0	0	0	1	24
350.947265625	0.100003313688831	718740	256	7	stim07_sf1_pattern2_cont2_shape2.png	1	84	0	538.653281710168	538.753285023857	0.100003313688831	stim07_sf1_pattern2_cont2_shape2.png	1	2	2	2	1	2	0	0	0	0	0	0	0	0	0	0	0	0	1	24
351.447265625	0.100004193428958	719764	257	14	stim14_sf2_pattern2_cont2_shape1.png	1	85	0	539.153260743023	539.253264936452	0.100004193428958	stim14_sf2_pattern2_cont2_shape1.png	2	2	2	1	1	1	0	0	0	0	0	0	0	0	0	0	0	0	1	24
351.947265625	0.100000381220525	720788	258	2	stim02_sf1_pattern1_cont2_shape1.png	1	86	0	539.653270566791	539.753270948011	0.100000381220525	stim02_sf1_pattern1_cont2_shape1.png	1	1	2	1	1	4	0	0	0	0	0	0	0	0	0	0	0	0	1	24
352.447265625	0.0999722295287029	721812	259	10	stim10_sf2_pattern1_cont2_shape1.png	1	87	0	540.153272766142	540.25324499567	0.0999722295287029	stim10_sf2_pattern1_cont2_shape1.png	2	1	2	1	1	3	0	0	0	0	0	0	0	0	0	0	0	0	1	24
352.947265625	0.0999971555061165	722836	260	3	stim03_sf1_pattern1_cont2_shape2.png	1	88	0	540.653260009906	540.753257165412	0.0999971555061165	stim03_sf1_pattern1_cont2_shape2.png	1	1	2	2	1	4	0	0	0	0	0	0	0	0	0	0	0	0	1	24
353.447265625	0.0999962757655339	723860	261	6	stim06_sf1_pattern2_cont2_shape1.png	1	89	0	541.153234350812	541.253230626578	0.0999962757655339	stim06_sf1_pattern2_cont2_shape1.png	1	2	2	1	1	2	0	0	0	0	0	0	0	0	0	0	0	0	1	24
353.947265625	0.100009765118102	724884	262	4	stim04_sf1_pattern2_cont1_shape1.png	1	90	0	541.65322306081	541.753232825929	0.100009765118102	stim04_sf1_pattern2_cont1_shape1.png	1	2	1	1	1	2	0	0	0	0	0	0	0	0	0	0	0	0	1	24
354.447265625	0.0999933432981379	725908	263	1	stim01_sf1_pattern1_cont1_shape2.png	1	91	0	542.153200920678	542.253194263976	0.0999933432981379	stim01_sf1_pattern1_cont1_shape2.png	1	1	1	2	1	4	0	0	0	0	0	0	0	0	0	0	0	0	1	24
354.947265625	0.0999953960254061	726932	264	7	stim07_sf1_pattern2_cont2_shape2.png	1	92	0	542.653203706522	542.753199102548	0.0999953960254061	stim07_sf1_pattern2_cont2_shape2.png	1	2	2	2	1	2	0	0	0	0	0	0	0	0	0	0	0	0	1	24
355.447265625	0.0999948095313812	727956	265	9	stim09_sf2_pattern1_cont1_shape2.png	1	93	0	543.153168370284	543.253163179816	0.0999948095313812	stim09_sf2_pattern1_cont1_shape2.png	2	1	1	2	1	3	0	0	0	0	0	0	0	0	0	0	0	0	1	24
355.947265625	0.0999977419996867	728980	266	3	stim03_sf1_pattern1_cont2_shape2.png	1	94	0	543.65316822366	543.75316596566	0.0999977419996867	stim03_sf1_pattern1_cont2_shape2.png	1	1	2	2	1	4	0	0	0	0	0	0	0	0	0	0	0	0	1	24
356.447265625	0.100001847454678	730004	267	4	stim04_sf1_pattern2_cont1_shape1.png	1	95	0	544.153154294438	544.253156141893	0.100001847454678	stim04_sf1_pattern2_cont1_shape1.png	1	2	1	1	1	2	0	0	0	0	0	0	0	0	0	0	0	0	1	24
356.947265625	0.0999898243362622	731028	268	15	stim15_sf2_pattern2_cont2_shape2.png	1	96	0	544.653164411453	544.753154235789	0.0999898243362622	stim15_sf2_pattern2_cont2_shape2.png	2	2	2	2	1	1	0	0	0	0	0	0	0	0	0	0	0	0	1	24
357.447265625	0.0999968622595588	732052	269	2	stim02_sf1_pattern1_cont2_shape1.png	1	97	0	545.153140218592	545.253137080852	0.0999968622595588	stim02_sf1_pattern1_cont2_shape1.png	1	1	2	1	1	4	0	0	0	0	0	0	0	0	0	0	0	0	1	24
357.947265625	0.100020028755807	733076	270	11	stim11_sf2_pattern1_cont2_shape2.png	1	98	0	545.653149749113	545.753169777869	0.100020028755807	stim11_sf2_pattern1_cont2_shape2.png	2	1	2	2	1	3	0	0	0	0	0	0	0	0	0	0	0	0	1	24
358.44677734375	0.100005952910124	734099	271	8	stim08_sf2_pattern1_cont1_shape1.png	1	99	0	546.153149309243	546.253155262153	0.100005952910124	stim08_sf2_pattern1_cont1_shape1.png	2	1	1	1	1	3	0	0	0	0	0	0	0	0	0	0	0	0	1	24
358.94677734375	0.100002727194806	735123	272	13	stim13_sf2_pattern2_cont1_shape2.png	1	100	0	546.653151215347	546.753153942542	0.100002727194806	stim13_sf2_pattern2_cont1_shape2.png	2	2	1	2	1	1	0	0	0	0	0	0	0	0	0	0	0	0	1	24
359.44677734375	0.100004193429413	736147	273	0	stim00_sf1_pattern1_cont1_shape1.png	1	101	0	547.153140218592	547.253144412021	0.100004193429413	stim00_sf1_pattern1_cont1_shape1.png	1	1	1	1	1	4	0	0	0	0	0	0	0	0	0	0	0	0	1	24
359.94677734375	0.0999968622595588	737171	274	14	stim14_sf2_pattern2_cont2_shape1.png	1	102	0	547.653165291193	547.753162153452	0.0999968622595588	stim14_sf2_pattern2_cont2_shape1.png	2	2	2	1	1	1	0	0	0	0	0	0	0	0	0	0	0	0	1	24
360.44677734375	0.10002941265293	738195	275	10	stim10_sf2_pattern1_cont2_shape1.png	1	103	0	548.153106201964	548.253135614617	0.10002941265293	stim10_sf2_pattern1_cont2_shape1.png	2	1	2	1	1	3	0	0	0	0	0	0	0	0	0	0	0	0	1	24
360.94677734375	0.100004486675971	739219	276	6	stim06_sf1_pattern2_cont2_shape1.png	1	104	0	548.653132740799	548.753137227475	0.100004486675971	stim06_sf1_pattern2_cont2_shape1.png	1	2	2	1	1	2	0	0	0	0	0	0	0	0	0	0	0	0	1	24
361.44677734375	0.0999742822568805	740243	277	1	stim01_sf1_pattern1_cont1_shape2.png	1	105	0	549.153116172355	549.253090454612	0.0999742822568805	stim01_sf1_pattern1_cont1_shape2.png	1	1	1	2	1	4	0	0	0	0	0	0	0	0	0	0	0	0	1	24
361.94677734375	0.099997448753129	741267	278	5	stim05_sf1_pattern2_cont1_shape2.png	1	106	0	549.65313538002	549.753132828773	0.099997448753129	stim05_sf1_pattern2_cont1_shape2.png	1	2	1	2	1	2	0	0	0	0	0	0	0	0	0	0	0	0	1	24
362.44677734375	0.100012404339395	742291	279	12	stim12_sf2_pattern2_cont1_shape1.png	1	107	0	550.153090073391	550.25310247773	0.100012404339395	stim12_sf2_pattern2_cont1_shape1.png	2	2	1	1	1	1	0	0	0	0	0	0	0	0	0	0	0	0	1	24
362.94677734375	0.099997448753129	743315	280	10	stim10_sf2_pattern1_cont2_shape1.png	1	108	0	550.653110160796	550.753107609549	0.099997448753129	stim10_sf2_pattern1_cont2_shape1.png	2	1	2	1	1	3	0	0	0	0	0	0	0	0	0	0	0	0	1	24
363.44677734375	0.100018269275097	744339	281	13	stim13_sf2_pattern2_cont1_shape2.png	1	109	0	551.153067200141	551.253085469416	0.100018269275097	stim13_sf2_pattern2_cont1_shape2.png	2	2	1	2	1	1	0	0	0	0	0	0	0	0	0	0	0	0	1	24
363.94677734375	0.0999907040768448	745363	282	3	stim03_sf1_pattern1_cont2_shape2.png	1	110	0	551.653097551184	551.753088255261	0.0999907040768448	stim03_sf1_pattern1_cont2_shape2.png	1	1	2	2	1	4	0	0	0	0	0	0	0	0	0	0	0	0	1	24
364.44677734375	0.10003058564007	746387	283	14	stim14_sf2_pattern2_cont2_shape1.png	1	111	0	552.153042274164	552.253072859804	0.10003058564007	stim14_sf2_pattern2_cont2_shape1.png	2	2	2	1	1	1	0	0	0	0	0	0	0	0	0	0	0	0	1	24
364.94677734375	0.099997448753129	747411	284	1	stim01_sf1_pattern1_cont1_shape2.png	1	112	0	552.653079956377	552.75307740513	0.099997448753129	stim01_sf1_pattern1_cont1_shape2.png	1	1	1	2	1	4	0	0	0	0	0	0	0	0	0	0	0	0	1	24
365.44677734375	0.099998914986827	748435	285	0	stim00_sf1_pattern1_cont1_shape1.png	1	113	0	553.153056056763	553.25305497175	0.099998914986827	stim00_sf1_pattern1_cont1_shape1.png	1	1	1	1	1	4	0	0	0	0	0	0	0	0	0	0	0	0	1	24
365.94677734375	0.0999983284932568	749459	286	15	stim15_sf2_pattern2_cont2_shape2.png	1	114	0	553.65304857897	553.753046907464	0.0999983284932568	stim15_sf2_pattern2_cont2_shape2.png	2	2	2	2	1	1	0	0	0	0	0	0	0	0	0	0	0	0	1	24
366.44677734375	0.100008298884404	750483	287	11	stim11_sf2_pattern1_cont2_shape2.png	1	115	0	554.153036995722	554.253045294606	0.100008298884404	stim11_sf2_pattern1_cont2_shape2.png	2	1	2	2	1	3	0	0	0	0	0	0	0	0	0	0	0	0	1	24
366.94677734375	0.0999986217398146	751507	288	5	stim05_sf1_pattern2_cont1_shape2.png	1	116	0	554.653049165464	554.753047787204	0.0999986217398146	stim05_sf1_pattern2_cont1_shape2.png	1	2	1	2	1	2	0	0	0	0	0	0	0	0	0	0	0	0	1	24
367.44677734375	0.100007125897264	752531	289	4	stim04_sf1_pattern2_cont1_shape1.png	1	117	0	555.153025559097	555.253032684994	0.100007125897264	stim04_sf1_pattern2_cont1_shape1.png	1	2	1	1	1	2	0	0	0	0	0	0	0	0	0	0	0	0	1	24
367.94677734375	0.100024427457811	753555	290	9	stim09_sf2_pattern1_cont1_shape2.png	1	118	0	555.653008697407	555.753033124864	0.100024427457811	stim09_sf2_pattern1_cont1_shape2.png	2	1	1	2	1	3	0	0	0	0	0	0	0	0	0	0	0	0	1	24
368.44677734375	0.100000674467537	754579	291	12	stim12_sf2_pattern2_cont1_shape1.png	1	119	0	556.153009723771	556.253010398238	0.100000674467537	stim12_sf2_pattern2_cont1_shape1.png	2	2	1	1	1	1	0	0	0	0	0	0	0	0	0	0	0	0	1	24
368.94677734375	0.100006539403239	755603	292	7	stim07_sf1_pattern2_cont2_shape2.png	1	120	0	556.652999900003	556.753006439406	0.100006539403239	stim07_sf1_pattern2_cont2_shape2.png	1	2	2	2	1	2	0	0	0	0	0	0	0	0	0	0	0	0	1	24
369.44677734375	0.100001847454678	756627	293	6	stim06_sf1_pattern2_cont2_shape1.png	1	121	0	557.152970135454	557.252971982909	0.100001847454678	stim06_sf1_pattern2_cont2_shape1.png	1	2	2	1	1	2	0	0	0	0	0	0	0	0	0	0	0	0	1	24
369.94677734375	0.100001847455133	757651	294	8	stim08_sf2_pattern1_cont1_shape1.png	1	122	0	557.652992275586	557.752994123041	0.100001847455133	stim08_sf2_pattern1_cont1_shape1.png	2	1	1	1	1	3	0	0	0	0	0	0	0	0	0	0	0	0	1	24
370.44677734375	0.0999742822564258	758675	295	2	stim02_sf1_pattern1_cont2_shape1.png	1	123	0	558.152966909739	558.252941191995	0.0999742822564258	stim02_sf1_pattern1_cont2_shape1.png	1	1	2	1	1	4	0	0	0	0	0	0	0	0	0	0	0	0	1	24
370.94677734375	0.0999953960254061	759699	296	13	stim13_sf2_pattern2_cont1_shape2.png	1	124	0	558.652947408827	558.752942804853	0.0999953960254061	stim13_sf2_pattern2_cont1_shape2.png	2	2	1	2	1	1	0	0	0	0	0	0	0	0	0	0	0	0	1	24
371.44677734375	0.0999951027788484	760723	297	7	stim07_sf1_pattern2_cont2_shape2.png	1	125	0	559.152936118826	559.252931221605	0.0999951027788484	stim07_sf1_pattern2_cont2_shape2.png	1	2	2	2	1	2	0	0	0	0	0	0	0	0	0	0	0	0	1	24
371.94677734375	0.0999980352462444	761747	298	12	stim12_sf2_pattern2_cont1_shape1.png	1	126	0	559.652931280254	559.7529293155	0.0999980352462444	stim12_sf2_pattern2_cont1_shape1.png	2	2	1	1	1	1	0	0	0	0	0	0	0	0	0	0	0	0	1	24
372.44677734375	0.0999918770639852	762771	299	4	stim04_sf1_pattern2_cont1_shape1.png	1	127	0	560.152919697006	560.25291157407	0.0999918770639852	stim04_sf1_pattern2_cont1_shape1.png	1	2	1	1	1	2	0	0	0	0	0	0	0	0	0	0	0	0	1	24
372.94677734375	0.0999962757659887	763795	300	15	stim15_sf2_pattern2_cont2_shape2.png	1	128	0	560.652920723369	560.752916999135	0.0999962757659887	stim15_sf2_pattern2_cont2_shape2.png	2	2	2	2	1	1	0	0	0	0	0	0	0	0	0	0	0	0	1	24
373.44677734375	0.099985132387701	764819	301	0	stim00_sf1_pattern1_cont1_shape1.png	1	129	0	561.152942863502	561.25292799589	0.099985132387701	stim00_sf1_pattern1_cont1_shape1.png	1	1	1	1	1	4	0	0	0	0	0	0	0	0	0	0	0	0	1	24
373.94677734375	0.0999959825189762	765843	302	2	stim02_sf1_pattern1_cont2_shape1.png	1	130	0	561.65293626545	561.752932247969	0.0999959825189762	stim02_sf1_pattern1_cont2_shape1.png	1	1	2	1	1	4	0	0	0	0	0	0	0	0	0	0	0	0	1	24
374.44677734375	0.0999997947269549	766867	303	11	stim11_sf2_pattern1_cont2_shape2.png	1	131	0	562.152919697006	562.252919491733	0.0999997947269549	stim11_sf2_pattern1_cont2_shape2.png	2	1	2	2	1	3	0	0	0	0	0	0	0	0	0	0	0	0	1	24
374.94677734375	0.0999977419996867	767891	304	5	stim05_sf1_pattern2_cont1_shape2.png	1	132	0	562.65293626545	562.752934007449	0.0999977419996867	stim05_sf1_pattern2_cont1_shape2.png	1	2	1	2	1	2	0	0	0	0	0	0	0	0	0	0	0	0	1	24
375.44677734375	0.099978974204987	768915	305	6	stim06_sf1_pattern2_cont2_shape1.png	1	133	0	563.152941690515	563.25292066472	0.099978974204987	stim06_sf1_pattern2_cont2_shape1.png	1	2	2	1	1	2	0	0	0	0	0	0	0	0	0	0	0	0	1	24
375.9462890625	0.0999924635575553	769938	306	1	stim01_sf1_pattern1_cont1_shape2.png	1	134	0	563.652926001812	563.752918465369	0.0999924635575553	stim01_sf1_pattern1_cont1_shape2.png	1	1	1	2	1	4	0	0	0	0	0	0	0	0	0	0	0	0	1	24
376.4462890625	0.100006539403239	770962	307	9	stim09_sf2_pattern1_cont1_shape2.png	1	135	0	564.152890958821	564.252897498224	0.100006539403239	stim09_sf2_pattern1_cont1_shape2.png	2	1	1	2	1	3	0	0	0	0	0	0	0	0	0	0	0	0	1	24
376.9462890625	0.0999930500511255	771986	308	14	stim14_sf2_pattern2_cont2_shape1.png	1	136	0	564.652904888043	564.752897938094	0.0999930500511255	stim14_sf2_pattern2_cont2_shape1.png	2	2	2	1	1	1	0	0	0	0	0	0	0	0	0	0	0	0	1	24
377.4462890625	0.0999426116031827	773010	309	3	stim03_sf1_pattern1_cont2_shape2.png	1	137	0	565.152907087394	565.252849698997	0.0999426116031827	stim03_sf1_pattern1_cont2_shape2.png	1	1	2	2	1	4	0	0	0	0	0	0	0	0	0	0	0	0	1	24
377.9462890625	0.0999965690125464	774034	310	8	stim08_sf2_pattern1_cont1_shape1.png	1	138	0	565.652886120248	565.752882689261	0.0999965690125464	stim08_sf2_pattern1_cont1_shape1.png	2	1	1	1	1	3	0	0	0	0	0	0	0	0	0	0	0	0	1	24
378.4462890625	0.100002433948703	775058	311	10	stim10_sf2_pattern1_cont2_shape1.png	1	139	0	566.15285987466	566.252862308609	0.100002433948703	stim10_sf2_pattern1_cont2_shape1.png	2	1	2	1	1	3	0	0	0	0	0	0	0	0	0	0	0	0	1	24
378.9462890625	0.0999971555061165	776082	312	6	stim06_sf1_pattern2_cont2_shape1.png	1	140	0	566.652870578168	566.752867733675	0.0999971555061165	stim06_sf1_pattern2_cont2_shape1.png	1	2	2	1	1	2	0	0	0	0	0	0	0	0	0	0	0	0	1	24
379.4462890625	0.100001260961108	777106	313	1	stim01_sf1_pattern1_cont1_shape2.png	1	141	0	567.152843159593	567.252844420555	0.100001260961108	stim01_sf1_pattern1_cont1_shape2.png	1	1	1	2	1	4	0	0	0	0	0	0	0	0	0	0	0	0	1	24
379.9462890625	0.0999936365446956	778130	314	11	stim11_sf2_pattern1_cont2_shape2.png	1	142	0	567.652856795569	567.752850432114	0.0999936365446956	stim11_sf2_pattern1_cont2_shape2.png	2	1	2	2	1	3	0	0	0	0	0	0	0	0	0	0	0	0	1	24
380.4462890625	0.0999792674515447	779154	315	2	stim02_sf1_pattern1_cont2_shape1.png	1	143	0	568.152851370504	568.252830637955	0.0999792674515447	stim02_sf1_pattern1_cont2_shape1.png	1	1	2	1	1	4	0	0	0	0	0	0	0	0	0	0	0	0	1	24
380.9462890625	0.0999953960254061	780178	316	14	stim14_sf2_pattern2_cont2_shape1.png	1	144	0	568.652840960242	568.752836356268	0.0999953960254061	stim14_sf2_pattern2_cont2_shape1.png	2	2	2	1	1	1	0	0	0	0	0	0	0	0	0	0	0	0	1	24
381.4462890625	0.100003900182401	781202	317	12	stim12_sf2_pattern2_cont1_shape1.png	1	145	0	569.15281236868	569.252816268863	0.100003900182401	stim12_sf2_pattern2_cont1_shape1.png	2	2	1	1	1	1	0	0	0	0	0	0	0	0	0	0	0	0	1	24
381.9462890625	0.0999977419996867	782226	318	5	stim05_sf1_pattern2_cont1_shape2.png	1	146	0	569.652826884397	569.752824626396	0.0999977419996867	stim05_sf1_pattern2_cont1_shape2.png	1	2	1	2	1	2	0	0	0	0	0	0	0	0	0	0	0	0	1	24
382.4462890625	0.10000038122098	783250	319	13	stim13_sf2_pattern2_cont1_shape2.png	1	147	0	570.152799465822	570.252799847043	0.10000038122098	stim13_sf2_pattern2_cont1_shape2.png	2	2	1	2	1	1	0	0	0	0	0	0	0	0	0	0	0	0	1	24
382.9462890625	0.0999968622591041	784274	320	3	stim03_sf1_pattern1_cont2_shape2.png	1	148	0	570.652810755823	570.752807618082	0.0999968622591041	stim03_sf1_pattern1_cont2_shape2.png	1	1	2	2	1	4	0	0	0	0	0	0	0	0	0	0	0	0	1	24
383.4462890625	0.0999821999198502	785298	321	10	stim10_sf2_pattern1_cont2_shape1.png	1	149	0	571.152802691537	571.252784891456	0.0999821999198502	stim10_sf2_pattern1_cont2_shape1.png	2	1	2	1	1	3	0	0	0	0	0	0	0	0	0	0	0	0	1	24
383.9462890625	0.100025307197939	786322	322	0	stim00_sf1_pattern1_cont1_shape1.png	1	150	0	571.652769701273	571.75279500847	0.100025307197939	stim00_sf1_pattern1_cont1_shape1.png	1	1	1	1	1	4	0	0	0	0	0	0	0	0	0	0	0	0	1	24
384.4462890625	0.0999986217398146	787346	323	8	stim08_sf2_pattern1_cont1_shape1.png	1	151	0	572.152770141143	572.252768762883	0.0999986217398146	stim08_sf2_pattern1_cont1_shape1.png	2	1	1	1	1	3	0	0	0	0	0	0	0	0	0	0	0	0	1	24
384.9462890625	0.100009471871545	788370	324	7	stim07_sf1_pattern2_cont2_shape2.png	1	152	0	572.652760024128	572.752769496	0.100009471871545	stim07_sf1_pattern2_cont2_shape2.png	1	2	2	2	1	2	0	0	0	0	0	0	0	0	0	0	0	0	1	24
385.4462890625	0.100008298884404	789394	325	4	stim04_sf1_pattern2_cont1_shape1.png	1	153	0	573.152729086592	573.252737385476	0.100008298884404	stim04_sf1_pattern2_cont1_shape1.png	1	2	1	1	1	2	0	0	0	0	0	0	0	0	0	0	0	0	1	24
385.9462890625	0.0999951027783936	790418	326	9	stim09_sf2_pattern1_cont1_shape2.png	1	154	0	573.652730699449	573.752725802228	0.0999951027783936	stim09_sf2_pattern1_cont1_shape2.png	2	1	1	2	1	3	0	0	0	0	0	0	0	0	0	0	0	0	1	24
386.4462890625	0.0999971555061165	791442	327	15	stim15_sf2_pattern2_cont2_shape2.png	1	155	0	574.152701228147	574.252698383653	0.0999971555061165	stim15_sf2_pattern2_cont2_shape2.png	2	2	2	2	1	1	0	0	0	0	0	0	0	0	0	0	0	0	1	24
386.9462890625	0.099997448753129	792466	328	4	stim04_sf1_pattern2_cont1_shape1.png	1	156	0	574.652707239706	574.752704688459	0.099997448753129	stim04_sf1_pattern2_cont1_shape1.png	1	2	1	1	1	2	0	0	0	0	0	0	0	0	0	0	0	0	1	24
387.4462890625	0.0999883581025642	793490	329	15	stim15_sf2_pattern2_cont2_shape2.png	1	157	0	575.152707093083	575.252695451185	0.0999883581025642	stim15_sf2_pattern2_cont2_shape2.png	2	2	2	2	1	1	0	0	0	0	0	0	0	0	0	0	0	0	1	24
387.9462890625	0.0999734025162979	794514	330	7	stim07_sf1_pattern2_cont2_shape2.png	1	158	0	575.65271691685	575.752690319367	0.0999734025162979	stim07_sf1_pattern2_cont2_shape2.png	1	2	2	2	1	2	0	0	0	0	0	0	0	0	0	0	0	0	1	24
388.4462890625	0.0999889445961344	795538	331	13	stim13_sf2_pattern2_cont1_shape2.png	1	159	0	576.152692430743	576.252681375339	0.0999889445961344	stim13_sf2_pattern2_cont1_shape2.png	2	2	1	2	1	1	0	0	0	0	0	0	0	0	0	0	0	0	1	24
388.9462890625	0.0999801471921273	796562	332	14	stim14_sf2_pattern2_cont2_shape1.png	1	160	0	576.652695803081	576.752675950273	0.0999801471921273	stim14_sf2_pattern2_cont2_shape1.png	2	2	2	1	1	1	0	0	0	0	0	0	0	0	0	0	0	0	1	24
389.4462890625	0.099991290570415	797586	333	11	stim11_sf2_pattern1_cont2_shape2.png	1	161	0	577.152697415939	577.252688706509	0.099991290570415	stim11_sf2_pattern1_cont2_shape2.png	2	1	2	2	1	3	0	0	0	0	0	0	0	0	0	0	0	0	1	24
389.9462890625	0.0999965690125464	798610	334	10	stim10_sf2_pattern1_cont2_shape1.png	1	162	0	577.652689938146	577.752686507158	0.0999965690125464	stim10_sf2_pattern1_cont2_shape1.png	2	1	2	1	1	3	0	0	0	0	0	0	0	0	0	0	0	0	1	24
390.4462890625	0.100065188761619	799634	335	5	stim05_sf1_pattern2_cont1_shape2.png	1	163	0	578.15262058528	578.252685774041	0.100065188761619	stim05_sf1_pattern2_cont1_shape2.png	1	2	1	2	1	2	0	0	0	0	0	0	0	0	0	0	0	0	1	24
390.9462890625	0.0999945162852782	800658	336	8	stim08_sf2_pattern1_cont1_shape1.png	1	164	0	578.652702254511	578.752696770796	0.0999945162852782	stim08_sf2_pattern1_cont1_shape1.png	2	1	1	1	1	3	0	0	0	0	0	0	0	0	0	0	0	0	1	24
391.4462890625	0.0999449575774634	801682	337	1	stim01_sf1_pattern1_cont1_shape2.png	1	165	0	579.152695656458	579.252640614035	0.0999449575774634	stim01_sf1_pattern1_cont1_shape2.png	1	1	1	2	1	4	0	0	0	0	0	0	0	0	0	0	0	0	1	24
391.9462890625	0.0999997947274096	802706	338	9	stim09_sf2_pattern1_cont1_shape2.png	1	166	0	579.652676448793	579.75267624352	0.0999997947274096	stim09_sf2_pattern1_cont1_shape2.png	2	1	1	2	1	3	0	0	0	0	0	0	0	0	0	0	0	0	1	24
392.4462890625	0.0999868918684115	803730	339	6	stim06_sf1_pattern2_cont2_shape1.png	1	167	0	580.152673956195	580.252660848064	0.0999868918684115	stim06_sf1_pattern2_cont2_shape1.png	1	2	2	1	1	2	0	0	0	0	0	0	0	0	0	0	0	0	1	24
392.9462890625	0.0999997947269549	804754	340	0	stim00_sf1_pattern1_cont1_shape1.png	1	168	0	580.652660026973	580.7526598217	0.0999997947269549	stim00_sf1_pattern1_cont1_shape1.png	1	1	1	1	1	4	0	0	0	0	0	0	0	0	0	0	0	0	1	24
393.44580078125	0.100001260961108	805777	341	3	stim03_sf1_pattern1_cont2_shape2.png	1	169	0	581.152634367879	581.25263562884	0.100001260961108	stim03_sf1_pattern1_cont2_shape2.png	1	1	2	2	1	4	0	0	0	0	0	0	0	0	0	0	0	0	1	24
393.94580078125	0.0999980352466991	806801	342	12	stim12_sf2_pattern2_cont1_shape1.png	1	170	0	581.652647710608	581.752645745854	0.0999980352466991	stim12_sf2_pattern2_cont1_shape1.png	2	2	1	1	1	1	0	0	0	0	0	0	0	0	0	0	0	0	1	24
394.44580078125	0.0999968622591041	807825	343	2	stim02_sf1_pattern1_cont2_shape1.png	1	171	0	582.15262234476	582.25261920702	0.0999968622591041	stim02_sf1_pattern1_cont2_shape1.png	1	1	2	1	1	4	0	0	0	0	0	0	0	0	0	0	0	0	1	24
431.36181640625	0.0999956892724185	883429	344	4	stim04_sf1_pattern2_cont1_shape1.png	2	0	0	619.068752003242	619.168747692514	0.0999956892724185	stim04_sf1_pattern2_cont1_shape1.png	1	2	1	1	1	2	0	0	0	0	0	0	0	0	0	0	0	0	1	24
431.86181640625	0.100018855768667	884453	345	10	stim10_sf2_pattern1_cont2_shape1.png	2	1	0	619.568736607786	619.668755463555	0.100018855768667	stim10_sf2_pattern1_cont2_shape1.png	2	1	2	1	1	3	0	0	0	0	0	0	0	0	0	0	0	0	1	24
432.36181640625	0.0999786809584293	885477	346	13	stim13_sf2_pattern2_cont1_shape2.png	2	2	0	620.068746138306	620.168724819265	0.0999786809584293	stim13_sf2_pattern2_cont1_shape2.png	2	2	1	2	1	1	0	0	0	0	0	0	0	0	0	0	0	0	1	24
432.86181640625	0.0999728160227278	886501	347	0	stim00_sf1_pattern1_cont1_shape1.png	2	3	0	620.568736314539	620.668709130562	0.0999728160227278	stim00_sf1_pattern1_cont1_shape1.png	1	1	1	1	1	4	0	0	0	0	0	0	0	0	0	0	0	0	1	24
433.36181640625	0.0999895310897045	887525	348	7	stim07_sf1_pattern2_cont2_shape2.png	2	4	0	621.068721212329	621.168710743419	0.0999895310897045	stim07_sf1_pattern2_cont2_shape2.png	1	2	2	2	1	2	0	0	0	0	0	0	0	0	0	0	0	0	1	24
433.861328125	0.0999945162852782	888548	349	12	stim12_sf2_pattern2_cont1_shape1.png	2	5	0	621.568717546744	621.668712063029	0.0999945162852782	stim12_sf2_pattern2_cont1_shape1.png	2	2	1	1	1	1	0	0	0	0	0	0	0	0	0	0	0	0	1	24
434.361328125	0.0999792674515447	889572	350	2	stim02_sf1_pattern1_cont2_shape1.png	2	6	0	622.068705083756	622.168684351208	0.0999792674515447	stim02_sf1_pattern1_cont2_shape1.png	1	1	2	1	1	4	0	0	0	0	0	0	0	0	0	0	0	0	1	24
434.861328125	0.10004319525251	890596	351	11	stim11_sf2_pattern1_cont2_shape2.png	2	7	0	622.568653912191	622.668697107443	0.10004319525251	stim11_sf2_pattern1_cont2_shape2.png	2	1	2	2	1	3	0	0	0	0	0	0	0	0	0	0	0	0	1	24
435.361328125	0.0999948095318359	891620	352	6	stim06_sf1_pattern2_cont2_shape1.png	2	8	0	623.068691594403	623.168686403935	0.0999948095318359	stim06_sf1_pattern2_cont2_shape1.png	1	2	2	1	1	2	0	0	0	0	0	0	0	0	0	0	0	0	1	24
435.861328125	0.100012111092383	892644	353	14	stim14_sf2_pattern2_cont2_shape1.png	2	9	0	623.568673852973	623.668685964065	0.100012111092383	stim14_sf2_pattern2_cont2_shape1.png	2	2	2	1	1	1	0	0	0	0	0	0	0	0	0	0	0	0	1	24
436.361328125	0.0999786809584293	893668	354	1	stim01_sf1_pattern1_cont1_shape2.png	2	10	0	624.068677811804	624.168656492763	0.0999786809584293	stim01_sf1_pattern1_cont1_shape2.png	1	1	1	2	1	4	0	0	0	0	0	0	0	0	0	0	0	0	1	24
436.861328125	0.100000381220525	894692	355	5	stim05_sf1_pattern2_cont1_shape2.png	2	11	0	624.568671213752	624.668671594972	0.100000381220525	stim05_sf1_pattern2_cont1_shape2.png	1	2	1	2	1	2	0	0	0	0	0	0	0	0	0	0	0	0	1	24
437.361328125	0.0999786809584293	895716	356	8	stim08_sf2_pattern1_cont1_shape1.png	2	12	0	625.068662562971	625.168641243929	0.0999786809584293	stim08_sf2_pattern1_cont1_shape1.png	2	1	1	1	1	3	0	0	0	0	0	0	0	0	0	0	0	0	1	24
437.861328125	0.100001847454678	896740	357	3	stim03_sf1_pattern1_cont2_shape2.png	2	13	0	625.568654205438	625.668656052892	0.100001847454678	stim03_sf1_pattern1_cont2_shape2.png	1	1	2	2	1	4	0	0	0	0	0	0	0	0	0	0	0	0	1	24
438.361328125	0.0999830796604328	897764	358	9	stim09_sf2_pattern1_cont1_shape2.png	2	14	0	626.068645847904	626.168628927564	0.0999830796604328	stim09_sf2_pattern1_cont1_shape2.png	2	1	1	2	1	3	0	0	0	0	0	0	0	0	0	0	0	0	1	24
438.861328125	0.0999821999198502	898788	359	15	stim15_sf2_pattern2_cont2_shape2.png	2	15	1	626.568639836345	626.668622036265	0.0999821999198502	stim15_sf2_pattern2_cont2_shape2.png	2	2	2	2	1	1	0	0	0	0	0	0	0	0	0	0	0	0	1	24
439.361328125	0.100015630053804	899812	360	15	stim15_sf2_pattern2_cont2_shape2.png	2	16	1	627.06862795985	627.168643589904	0.100015630053804	stim15_sf2_pattern2_cont2_shape2.png	2	2	2	2	1	1	0	0	0	0	0	0	0	0	0	0	0	0	1	24
439.861328125	0.0999778012178467	900836	361	0	stim00_sf1_pattern1_cont1_shape1.png	2	17	2	627.568624587512	627.66860238873	0.0999778012178467	stim00_sf1_pattern1_cont1_shape1.png	1	1	1	1	1	4	0	0	0	0	0	0	0	0	0	0	0	0	1	24
440.361328125	0.100001260961108	901860	362	12	stim12_sf2_pattern2_cont1_shape1.png	2	18	2	628.068616816472	628.168618077433	0.100001260961108	stim12_sf2_pattern2_cont1_shape1.png	2	2	1	1	1	1	0	0	0	0	0	0	0	0	0	0	0	0	1	24
440.861328125	0.0999997947274096	902884	363	15	stim15_sf2_pattern2_cont2_shape2.png	2	19	0	628.568605819717	628.668605614444	0.0999997947274096	stim15_sf2_pattern2_cont2_shape2.png	2	2	2	2	1	1	0	0	0	0	0	0	0	0	0	0	0	0	1	24
441.361328125	0.0999692970613069	903908	364	7	stim07_sf1_pattern2_cont2_shape2.png	2	20	0	629.068609192055	629.168578489116	0.0999692970613069	stim07_sf1_pattern2_cont2_shape2.png	1	2	2	2	1	2	0	0	0	0	0	0	0	0	0	0	0	0	1	24
441.861328125	0.0999478900453141	904932	365	15	stim15_sf2_pattern2_cont2_shape2.png	2	21	0	629.56860552647	629.668553416516	0.0999478900453141	stim15_sf2_pattern2_cont2_shape2.png	2	2	2	2	1	1	0	0	0	0	0	0	0	0	0	0	0	0	1	24
442.361328125	0.0999716430355875	905956	366	5	stim05_sf1_pattern2_cont1_shape2.png	2	22	0	630.068593063482	630.168564706517	0.0999716430355875	stim05_sf1_pattern2_cont1_shape2.png	1	2	1	2	1	2	0	0	0	0	0	0	0	0	0	0	0	0	1	24
442.861328125	0.0999722295291576	906980	367	11	stim11_sf2_pattern1_cont2_shape2.png	2	23	0	630.56856447192	630.668536701449	0.0999722295291576	stim11_sf2_pattern1_cont2_shape2.png	2	1	2	2	1	3	0	0	0	0	0	0	0	0	0	0	0	0	1	24
443.361328125	0.0999810269327099	908004	368	0	stim00_sf1_pattern1_cont1_shape1.png	2	24	0	631.068552888672	631.168533915604	0.0999810269327099	stim00_sf1_pattern1_cont1_shape1.png	1	1	1	1	1	4	0	0	0	0	0	0	0	0	0	0	0	0	1	24
443.861328125	0.0999956892724185	909028	369	4	stim04_sf1_pattern2_cont1_shape1.png	2	25	0	631.56854892984	631.668544619112	0.0999956892724185	stim04_sf1_pattern2_cont1_shape1.png	1	2	1	1	1	2	0	0	0	0	0	0	0	0	0	0	0	0	1	24
444.361328125	0.0999704700479924	910052	370	3	stim03_sf1_pattern1_cont2_shape2.png	2	26	0	632.068547023736	632.168517493784	0.0999704700479924	stim03_sf1_pattern1_cont2_shape2.png	1	1	2	2	1	4	0	0	0	0	0	0	0	0	0	0	0	0	1	24
444.861328125	0.0999684173207243	911076	371	8	stim08_sf2_pattern1_cont1_shape1.png	2	27	0	632.568544824385	632.668513241706	0.0999684173207243	stim08_sf2_pattern1_cont1_shape1.png	2	1	1	1	1	3	0	0	0	0	0	0	0	0	0	0	0	0	1	24
445.361328125	0.0999801471921273	912100	372	10	stim10_sf2_pattern1_cont2_shape1.png	2	28	0	633.068530895162	633.168511042355	0.0999801471921273	stim10_sf2_pattern1_cont2_shape1.png	2	1	2	1	1	3	0	0	0	0	0	0	0	0	0	0	0	0	1	24
445.861328125	0.100003020441818	913124	373	9	stim09_sf2_pattern1_cont1_shape2.png	2	29	0	633.568519018667	633.668522039109	0.100003020441818	stim09_sf2_pattern1_cont1_shape2.png	2	1	1	2	1	3	0	0	0	0	0	0	0	0	0	0	0	0	1	24
446.361328125	0.0998912934146574	914148	374	12	stim12_sf2_pattern2_cont1_shape1.png	2	30	0	634.068615936731	634.168507230146	0.0998912934146574	stim12_sf2_pattern2_cont1_shape1.png	2	2	1	1	1	1	0	0	0	0	0	0	0	0	0	0	0	0	1	24
446.861328125	0.100014750313676	915172	375	6	stim06_sf1_pattern2_cont2_shape1.png	2	31	0	634.568515206459	634.668529956773	0.100014750313676	stim06_sf1_pattern2_cont2_shape1.png	1	2	2	1	1	2	0	0	0	0	0	0	0	0	0	0	0	0	1	24
447.361328125	0.0999977419996867	916196	376	13	stim13_sf2_pattern2_cont1_shape2.png	2	32	0	635.068527962695	635.168525704694	0.0999977419996867	stim13_sf2_pattern2_cont1_shape2.png	2	2	1	2	1	1	0	0	0	0	0	0	0	0	0	0	0	0	1	24
447.861328125	0.0999977419996867	917220	377	2	stim02_sf1_pattern1_cont2_shape1.png	2	33	0	635.568516379446	635.668514121446	0.0999977419996867	stim02_sf1_pattern1_cont2_shape1.png	1	1	2	1	1	4	0	0	0	0	0	0	0	0	0	0	0	0	1	24
448.361328125	0.10000096771455	918244	378	1	stim01_sf1_pattern1_cont1_shape2.png	2	34	0	636.068498051522	636.168499019236	0.10000096771455	stim01_sf1_pattern1_cont1_shape2.png	1	1	1	2	1	4	0	0	0	0	0	0	0	0	0	0	0	0	1	24
448.861328125	0.0999807336856975	919268	379	14	stim14_sf2_pattern2_cont2_shape1.png	2	35	0	636.568492626456	636.668473360142	0.0999807336856975	stim14_sf2_pattern2_cont2_shape1.png	2	2	2	1	1	1	0	0	0	0	0	0	0	0	0	0	0	0	1	24
449.361328125	0.0999860121278289	920292	380	0	stim00_sf1_pattern1_cont1_shape1.png	2	36	0	637.068499224509	637.168485236637	0.0999860121278289	stim00_sf1_pattern1_cont1_shape1.png	1	1	1	1	1	4	0	0	0	0	0	0	0	0	0	0	0	0	1	24
449.861328125	0.0999921703105429	921316	381	1	stim01_sf1_pattern1_cont1_shape2.png	2	37	0	637.568482069572	637.668474239882	0.0999921703105429	stim01_sf1_pattern1_cont1_shape2.png	1	1	1	2	1	4	0	0	0	0	0	0	0	0	0	0	0	0	1	24
450.361328125	0.0999525819938754	922340	382	7	stim07_sf1_pattern2_cont2_shape2.png	2	38	0	638.068427965539	638.168380547533	0.0999525819938754	stim07_sf1_pattern2_cont2_shape2.png	1	2	2	2	1	2	0	0	0	0	0	0	0	0	0	0	0	0	1	24
450.861328125	0.0999980352466991	923364	383	11	stim11_sf2_pattern1_cont2_shape2.png	2	39	0	638.568460076062	638.668458111309	0.0999980352466991	stim11_sf2_pattern1_cont2_shape2.png	2	1	2	2	1	3	0	0	0	0	0	0	0	0	0	0	0	0	1	24
451.36083984375	0.0999763349841487	924387	384	3	stim03_sf1_pattern1_cont2_shape2.png	2	40	0	639.068455823984	639.168432158968	0.0999763349841487	stim03_sf1_pattern1_cont2_shape2.png	1	1	2	2	1	4	0	0	0	0	0	0	0	0	0	0	0	0	1	24
451.86083984375	0.0999968622595588	925411	385	5	stim05_sf1_pattern2_cont1_shape2.png	2	41	0	639.568448052944	639.668444915204	0.0999968622595588	stim05_sf1_pattern2_cont1_shape2.png	1	2	1	2	1	2	0	0	0	0	0	0	0	0	0	0	0	0	1	24
452.36083984375	0.0999555144621809	926435	386	13	stim13_sf2_pattern2_cont1_shape2.png	2	42	0	640.068441161644	640.168396676107	0.0999555144621809	stim13_sf2_pattern2_cont1_shape2.png	2	2	1	2	1	1	0	0	0	0	0	0	0	0	0	0	0	0	1	24
452.86083984375	0.0999722295287029	927459	387	6	stim06_sf1_pattern2_cont2_shape1.png	2	43	0	640.568434563592	640.668406793121	0.0999722295287029	stim06_sf1_pattern2_cont2_shape1.png	1	2	2	1	1	2	0	0	0	0	0	0	0	0	0	0	0	0	1	24
453.36083984375	0.0999827864134204	928483	388	2	stim02_sf1_pattern1_cont2_shape1.png	2	44	0	641.068422100603	641.168404887017	0.0999827864134204	stim02_sf1_pattern1_cont2_shape1.png	1	1	2	1	1	4	0	0	0	0	0	0	0	0	0	0	0	0	1	24
453.86083984375	0.0999992082338395	929507	389	14	stim14_sf2_pattern2_cont2_shape1.png	2	45	0	641.568415795797	641.668415004031	0.0999992082338395	stim14_sf2_pattern2_cont2_shape1.png	2	2	2	1	1	1	0	0	0	0	0	0	0	0	0	0	0	0	1	24
454.36083984375	0.0999816134262801	930531	390	8	stim08_sf2_pattern1_cont1_shape1.png	2	46	0	642.06840773151	642.168389344937	0.0999816134262801	stim08_sf2_pattern1_cont1_shape1.png	2	1	1	1	1	3	0	0	0	0	0	0	0	0	0	0	0	0	1	24
454.86083984375	0.099997448753129	931555	391	9	stim09_sf2_pattern1_cont1_shape2.png	2	47	0	642.568403186185	642.668400634938	0.099997448753129	stim09_sf2_pattern1_cont1_shape2.png	2	1	1	2	1	3	0	0	0	0	0	0	0	0	0	0	0	0	1	24
455.36083984375	0.100008005637392	932579	392	10	stim10_sf2_pattern1_cont2_shape1.png	2	48	0	643.068371075662	643.168379081299	0.100008005637392	stim10_sf2_pattern1_cont2_shape1.png	2	1	2	1	1	3	0	0	0	0	0	0	0	0	0	0	0	0	1	24
455.86083984375	0.0999951027783936	933603	393	15	stim15_sf2_pattern2_cont2_shape2.png	2	49	0	643.568387644105	643.668382746884	0.0999951027783936	stim15_sf2_pattern2_cont2_shape2.png	2	2	2	2	1	1	0	0	0	0	0	0	0	0	0	0	0	0	1	24
456.36083984375	0.0999930500511255	934627	394	12	stim12_sf2_pattern2_cont1_shape1.png	2	50	0	644.06838397852	644.168377028571	0.0999930500511255	stim12_sf2_pattern2_cont1_shape1.png	2	2	1	1	1	1	0	0	0	0	0	0	0	0	0	0	0	0	1	24
456.86083984375	0.10000888537752	935651	395	4	stim04_sf1_pattern2_cont1_shape1.png	2	51	0	644.568357146439	644.668366031817	0.10000888537752	stim04_sf1_pattern2_cont1_shape1.png	1	2	1	1	1	2	0	0	0	0	0	0	0	0	0	0	0	0	1	24
457.36083984375	0.100015336807246	936675	396	2	stim02_sf1_pattern1_cont2_shape1.png	2	52	0	645.068308320848	645.168323657655	0.100015336807246	stim02_sf1_pattern1_cont2_shape1.png	1	1	2	1	1	4	0	0	0	0	0	0	0	0	0	0	0	0	1	24
457.86083984375	0.100003900182401	937699	397	9	stim09_sf2_pattern1_cont1_shape2.png	2	53	0	645.568339551632	645.668343451814	0.100003900182401	stim09_sf2_pattern1_cont1_shape2.png	2	1	1	2	1	3	0	0	0	0	0	0	0	0	0	0	0	0	1	24
458.36083984375	0.0999816134262801	938723	398	12	stim12_sf2_pattern2_cont1_shape1.png	2	54	0	646.068311253317	646.168292866743	0.0999816134262801	stim12_sf2_pattern2_cont1_shape1.png	2	2	1	1	1	1	0	0	0	0	0	0	0	0	0	0	0	0	1	24
458.86083984375	0.099997448753129	939747	399	14	stim14_sf2_pattern2_cont2_shape1.png	2	55	0	646.56831961085	646.668317059603	0.099997448753129	stim14_sf2_pattern2_cont2_shape1.png	2	2	2	1	1	1	0	0	0	0	0	0	0	0	0	0	0	0	1	24
459.36083984375	0.0999874783619816	940771	400	1	stim01_sf1_pattern1_cont1_shape2.png	2	56	0	647.068312426304	647.168299904666	0.0999874783619816	stim01_sf1_pattern1_cont1_shape2.png	1	1	1	2	1	4	0	0	0	0	0	0	0	0	0	0	0	0	1	24
459.86083984375	0.100021788236518	941795	401	6	stim06_sf1_pattern2_cont2_shape1.png	2	57	0	647.568276796818	647.668298585055	0.100021788236518	stim06_sf1_pattern2_cont2_shape1.png	1	2	2	1	1	2	0	0	0	0	0	0	0	0	0	0	0	0	1	24
460.36083984375	0.0999745755029835	942819	402	15	stim15_sf2_pattern2_cont2_shape2.png	2	58	0	648.068289553054	648.168264128557	0.0999745755029835	stim15_sf2_pattern2_cont2_shape2.png	2	2	2	2	1	1	0	0	0	0	0	0	0	0	0	0	0	0	1	24
460.86083984375	0.100001847454678	943843	403	8	stim08_sf2_pattern1_cont1_shape1.png	2	59	0	648.568294098379	648.668295945834	0.100001847454678	stim08_sf2_pattern1_cont1_shape1.png	2	1	1	1	1	3	0	0	0	0	0	0	0	0	0	0	0	0	1	24
461.36083984375	0.099983666154003	944867	404	7	stim07_sf1_pattern2_cont2_shape2.png	2	60	0	649.068291605781	649.168275271935	0.099983666154003	stim07_sf1_pattern2_cont2_shape2.png	1	2	2	2	1	2	0	0	0	0	0	0	0	0	0	0	0	0	1	24
461.86083984375	0.0999863053748413	945891	405	3	stim03_sf1_pattern1_cont2_shape2.png	2	61	0	649.56828119552	649.668267500895	0.0999863053748413	stim03_sf1_pattern1_cont2_shape2.png	1	1	2	2	1	4	0	0	0	0	0	0	0	0	0	0	0	0	1	24
462.36083984375	0.0999253100426358	946915	406	0	stim00_sf1_pattern1_cont1_shape1.png	2	62	0	650.068292778768	650.168218088811	0.0999253100426358	stim00_sf1_pattern1_cont1_shape1.png	1	1	1	1	1	4	0	0	0	0	0	0	0	0	0	0	0	0	1	24
462.86083984375	0.0999892378426921	947939	407	5	stim05_sf1_pattern2_cont1_shape2.png	2	63	0	650.568294978119	650.668284215962	0.0999892378426921	stim05_sf1_pattern2_cont1_shape2.png	1	2	1	2	1	2	0	0	0	0	0	0	0	0	0	0	0	0	1	24
463.36083984375	0.0999716430355875	948963	408	11	stim11_sf2_pattern1_cont2_shape2.png	2	64	0	651.068284567858	651.168256210894	0.0999716430355875	stim11_sf2_pattern1_cont2_shape2.png	2	1	2	2	1	3	0	0	0	0	0	0	0	0	0	0	0	0	1	24
463.86083984375	0.0999930500511255	949987	409	10	stim10_sf2_pattern1_cont2_shape1.png	2	65	0	651.568271518376	651.668264568427	0.0999930500511255	stim10_sf2_pattern1_cont2_shape1.png	2	1	2	1	1	3	0	0	0	0	0	0	0	0	0	0	0	0	1	24
464.36083984375	0.0999798539455696	951011	410	13	stim13_sf2_pattern2_cont1_shape2.png	2	66	0	652.068264627077	652.168244481022	0.0999798539455696	stim13_sf2_pattern2_cont1_shape2.png	2	2	1	2	1	1	0	0	0	0	0	0	0	0	0	0	0	0	1	24
464.86083984375	0.0999748687499959	952035	411	4	stim04_sf1_pattern2_cont1_shape1.png	2	67	0	652.568254216816	652.668229085566	0.0999748687499959	stim04_sf1_pattern2_cont1_shape1.png	1	2	1	1	1	2	0	0	0	0	0	0	0	0	0	0	0	0	1	24
465.36083984375	0.0999798539451149	953059	412	3	stim03_sf1_pattern1_cont2_shape2.png	2	68	0	653.068246445776	653.168226299721	0.0999798539451149	stim03_sf1_pattern1_cont2_shape2.png	1	1	2	2	1	4	0	0	0	0	0	0	0	0	0	0	0	0	1	24
465.86083984375	0.0999912905699603	954083	413	10	stim10_sf2_pattern1_cont2_shape1.png	2	69	0	653.568243073438	653.668234364008	0.0999912905699603	stim10_sf2_pattern1_cont2_shape1.png	2	1	2	1	1	3	0	0	0	0	0	0	0	0	0	0	0	0	1	24
466.36083984375	0.099998914986827	955107	414	6	stim06_sf1_pattern2_cont2_shape1.png	2	70	0	654.068212429148	654.168211344135	0.099998914986827	stim06_sf1_pattern2_cont2_shape1.png	1	2	2	1	1	2	0	0	0	0	0	0	0	0	0	0	0	0	1	24
466.86083984375	0.1000226679771	956131	415	11	stim11_sf2_pattern1_cont2_shape2.png	2	71	0	654.5682008459	654.668223513877	0.1000226679771	stim11_sf2_pattern1_cont2_shape2.png	2	1	2	2	1	3	0	0	0	0	0	0	0	0	0	0	0	0	1	24
467.36083984375	0.0999772147247313	957155	416	13	stim13_sf2_pattern2_cont1_shape2.png	2	72	0	655.068215361616	655.168192576341	0.0999772147247313	stim13_sf2_pattern2_cont1_shape2.png	2	2	1	2	1	1	0	0	0	0	0	0	0	0	0	0	0	0	1	24
467.86083984375	0.099998914986827	958179	417	9	stim09_sf2_pattern1_cont1_shape2.png	2	73	0	655.568209643303	655.66820855829	0.099998914986827	stim09_sf2_pattern1_cont1_shape2.png	2	1	1	2	1	3	0	0	0	0	0	0	0	0	0	0	0	0	1	24
468.36083984375	0.0999842526475732	959203	418	2	stim02_sf1_pattern1_cont2_shape1.png	2	74	0	656.068201579017	656.168185831664	0.0999842526475732	stim02_sf1_pattern1_cont2_shape1.png	1	1	2	1	1	4	0	0	0	0	0	0	0	0	0	0	0	0	1	24
468.8603515625	0.0999995014803972	960226	419	1	stim01_sf1_pattern1_cont1_shape2.png	2	75	0	656.56819351473	656.66819301621	0.0999995014803972	stim01_sf1_pattern1_cont1_shape2.png	1	1	1	2	1	4	0	0	0	0	0	0	0	0	0	0	0	0	1	24
469.3603515625	0.0999845458941309	961250	420	0	stim00_sf1_pattern1_cont1_shape1.png	2	76	0	657.068182811222	657.168167357117	0.0999845458941309	stim00_sf1_pattern1_cont1_shape1.png	1	1	1	1	1	4	0	0	0	0	0	0	0	0	0	0	0	0	1	24
469.8603515625	0.100001260961108	962274	421	7	stim07_sf1_pattern2_cont2_shape2.png	2	77	0	657.568176506416	657.668177767378	0.100001260961108	stim07_sf1_pattern2_cont2_shape2.png	1	2	2	2	1	2	0	0	0	0	0	0	0	0	0	0	0	0	1	24
470.3603515625	0.0999839594005607	963298	422	12	stim12_sf2_pattern2_cont1_shape1.png	2	78	0	658.06817020161	658.168154161011	0.0999839594005607	stim12_sf2_pattern2_cont1_shape1.png	2	2	1	1	1	1	0	0	0	0	0	0	0	0	0	0	0	0	1	24
470.8603515625	0.0999912905699603	964322	423	15	stim15_sf2_pattern2_cont2_shape2.png	2	79	0	658.568166829272	658.668158119842	0.0999912905699603	stim15_sf2_pattern2_cont2_shape2.png	2	2	2	2	1	1	0	0	0	0	0	0	0	0	0	0	0	0	1	24
471.3603515625	0.100003020441818	965346	424	5	stim05_sf1_pattern2_cont1_shape2.png	2	80	0	659.068133839008	659.16813685945	0.100003020441818	stim05_sf1_pattern2_cont1_shape2.png	1	2	1	2	1	2	0	0	0	0	0	0	0	0	0	0	0	0	1	24
471.8603515625	0.100005073169541	966370	425	8	stim08_sf2_pattern1_cont1_shape1.png	2	81	0	659.568125481474	659.668130554644	0.100005073169541	stim08_sf2_pattern1_cont1_shape1.png	2	1	1	1	1	3	0	0	0	0	0	0	0	0	0	0	0	0	1	24
472.3603515625	0.100005073169541	967394	426	14	stim14_sf2_pattern2_cont2_shape1.png	2	82	0	660.068098356146	660.168103429316	0.100005073169541	stim14_sf2_pattern2_cont2_shape1.png	2	2	2	1	1	1	0	0	0	0	0	0	0	0	0	0	0	0	1	24
472.8603515625	0.0999778012178467	968418	427	4	stim04_sf1_pattern2_cont1_shape1.png	2	83	0	660.568125188228	660.668102989446	0.0999778012178467	stim04_sf1_pattern2_cont1_shape1.png	1	2	1	1	1	2	0	0	0	0	0	0	0	0	0	0	0	0	1	24
473.3603515625	0.0999854256347135	969442	428	0	stim00_sf1_pattern1_cont1_shape1.png	2	84	0	661.068082814067	661.168068239701	0.0999854256347135	stim00_sf1_pattern1_cont1_shape1.png	1	1	1	1	1	4	0	0	0	0	0	0	0	0	0	0	0	0	1	24
473.8603515625	0.100001554207665	970466	429	1	stim01_sf1_pattern1_cont1_shape2.png	2	85	0	661.568080907963	661.66808246217	0.100001554207665	stim01_sf1_pattern1_cont1_shape2.png	1	1	1	2	1	4	0	0	0	0	0	0	0	0	0	0	0	0	1	24
474.3603515625	0.0999842526475732	971490	430	14	stim14_sf2_pattern2_cont2_shape1.png	2	86	0	662.068068151727	662.168052404375	0.0999842526475732	stim14_sf2_pattern2_cont2_shape1.png	2	2	2	1	1	1	0	0	0	0	0	0	0	0	0	0	0	0	1	24
474.8603515625	0.0999945162848235	972514	431	4	stim04_sf1_pattern2_cont1_shape1.png	2	87	0	662.568064192896	662.668058709181	0.0999945162848235	stim04_sf1_pattern2_cont1_shape1.png	1	2	1	1	1	2	0	0	0	0	0	0	0	0	0	0	0	0	1	24
475.3603515625	0.0999936365446956	973538	432	8	stim08_sf2_pattern1_cont1_shape1.png	2	88	0	663.068052023154	663.168045659698	0.0999936365446956	stim08_sf2_pattern1_cont1_shape1.png	2	1	1	1	1	3	0	0	0	0	0	0	0	0	0	0	0	0	1	24
475.8603515625	0.0999880648555518	974562	433	10	stim10_sf2_pattern1_cont2_shape1.png	2	89	0	663.568082667443	663.668070732299	0.0999880648555518	stim10_sf2_pattern1_cont2_shape1.png	2	1	2	1	1	3	0	0	0	0	0	0	0	0	0	0	0	0	1	24
476.3603515625	0.0999599131637297	975586	434	5	stim05_sf1_pattern2_cont1_shape2.png	2	90	0	664.068071670689	664.168031583853	0.0999599131637297	stim05_sf1_pattern2_cont1_shape2.png	1	2	1	2	1	2	0	0	0	0	0	0	0	0	0	0	0	0	1	24
476.8603515625	0.0999915838169727	976610	435	7	stim07_sf1_pattern2_cont2_shape2.png	2	91	0	664.56806653887	664.668058122687	0.0999915838169727	stim07_sf1_pattern2_cont2_shape2.png	1	2	2	2	1	2	0	0	0	0	0	0	0	0	0	0	0	0	1	24
477.3603515625	0.0999983284932568	977634	436	13	stim13_sf2_pattern2_cont1_shape2.png	2	92	0	665.068051729907	665.1680500584	0.0999983284932568	stim13_sf2_pattern2_cont1_shape2.png	2	2	1	2	1	1	0	0	0	0	0	0	0	0	0	0	0	0	1	24
477.8603515625	0.0999977419996867	978658	437	6	stim06_sf1_pattern2_cont2_shape1.png	2	93	0	665.568068298351	665.66806604035	0.0999977419996867	stim06_sf1_pattern2_cont2_shape1.png	1	2	2	1	1	2	0	0	0	0	0	0	0	0	0	0	0	0	1	24
478.3603515625	0.100005952910124	979682	438	15	stim15_sf2_pattern2_cont2_shape2.png	2	94	0	666.068054955621	666.168060908532	0.100005952910124	stim15_sf2_pattern2_cont2_shape2.png	2	2	2	2	1	1	0	0	0	0	0	0	0	0	0	0	0	0	1	24
478.8603515625	0.0999824931668627	980706	439	12	stim12_sf2_pattern2_cont1_shape1.png	2	95	0	666.568056568479	666.668039061646	0.0999824931668627	stim12_sf2_pattern2_cont1_shape1.png	2	2	1	1	1	1	0	0	0	0	0	0	0	0	0	0	0	0	1	24
479.3603515625	0.0999798539455696	981730	440	9	stim09_sf2_pattern1_cont1_shape2.png	2	96	0	667.068037360814	667.16801721476	0.0999798539455696	stim09_sf2_pattern1_cont1_shape2.png	2	1	1	2	1	3	0	0	0	0	0	0	0	0	0	0	0	0	1	24
479.8603515625	0.100003020441818	982754	441	3	stim03_sf1_pattern1_cont2_shape2.png	2	97	0	667.568030469515	667.668033489957	0.100003020441818	stim03_sf1_pattern1_cont2_shape2.png	1	1	2	2	1	4	0	0	0	0	0	0	0	0	0	0	0	0	1	24
480.3603515625	0.0999783877118716	983778	442	2	stim02_sf1_pattern1_cont2_shape1.png	2	98	0	668.068023284968	668.16800167268	0.0999783877118716	stim02_sf1_pattern1_cont2_shape1.png	1	1	2	1	1	4	0	0	0	0	0	0	0	0	0	0	0	0	1	24
480.8603515625	0.0999936365446956	984802	443	11	stim11_sf2_pattern1_cont2_shape2.png	2	99	0	668.56801991263	668.668013549175	0.0999936365446956	stim11_sf2_pattern1_cont2_shape2.png	2	1	2	2	1	3	0	0	0	0	0	0	0	0	0	0	0	0	1	24
481.3603515625	0.0999804404391398	985826	444	13	stim13_sf2_pattern2_cont1_shape2.png	2	100	0	669.068007156395	669.167987596834	0.0999804404391398	stim13_sf2_pattern2_cont1_shape2.png	2	2	1	2	1	1	0	0	0	0	0	0	0	0	0	0	0	0	1	24
481.8603515625	0.0999933432981379	986850	445	9	stim09_sf2_pattern1_cont1_shape2.png	2	101	0	669.568007889512	669.66800123281	0.0999933432981379	stim09_sf2_pattern1_cont1_shape2.png	2	1	1	2	1	3	0	0	0	0	0	0	0	0	0	0	0	0	1	24
482.3603515625	0.0999798539455696	987874	446	14	stim14_sf2_pattern2_cont2_shape1.png	2	102	0	670.067992787302	670.167972641248	0.0999798539455696	stim14_sf2_pattern2_cont2_shape1.png	2	2	2	1	1	1	0	0	0	0	0	0	0	0	0	0	0	0	1	24
482.8603515625	0.100037916809924	988898	447	1	stim01_sf1_pattern1_cont1_shape2.png	2	103	0	670.567949240154	670.667987156964	0.100037916809924	stim01_sf1_pattern1_cont1_shape2.png	1	1	1	2	1	4	0	0	0	0	0	0	0	0	0	0	0	0	1	24
483.3603515625	0.0999736957633104	989922	448	11	stim11_sf2_pattern1_cont2_shape2.png	2	104	0	671.067979297949	671.167952993713	0.0999736957633104	stim11_sf2_pattern1_cont2_shape2.png	2	1	2	2	1	3	0	0	0	0	0	0	0	0	0	0	0	0	1	24
483.8603515625	0.10000038122098	990946	449	5	stim05_sf1_pattern2_cont1_shape2.png	2	105	0	671.567970647169	671.66797102839	0.10000038122098	stim05_sf1_pattern2_cont1_shape2.png	1	2	1	2	1	2	0	0	0	0	0	0	0	0	0	0	0	0	1	24
