onset	duration	onsetsample	eventnumber	stimnumber	stimname	blocknumber	trialnumber	istarget	time_stimon	time_stimoff	stimdur	stimfilename	spatial_freq	pattern	contrast	shape	is_fast_stream	category	ppt_1_response	ppt_1_keypressed	ppt_1_rt	ppt_1_correct	ppt_2_response	ppt_2_keypressed	ppt_2_rt	ppt_2_correct	button1	button2	button3	button4	task_part_number	subjectnr
145.40087890625	0.0999652212262845	297781	0	1	stim01_sf1_pattern1_cont1_shape2.png	0	0	0	192.971868194899	193.071833416126	0.0999652212262845	stim01_sf1_pattern1_cont1_shape2.png	1	1	1	2	1	4	0	0	0	0	0	0	0	0	0	0	0	0	1	11
145.9091796875	0.100030028216224	298822	1	5	stim05_sf1_pattern2_cont1_shape2.png	0	1	0	193.480140909749	193.580170937965	0.100030028216224	stim05_sf1_pattern2_cont1_shape2.png	1	2	1	2	1	3	0	0	0	0	0	0	0	0	0	0	0	0	1	11
146.4091796875	0.105567653512026	299846	2	15	stim15_sf2_pattern2_cont2_shape2.png	0	2	0	193.999551042982	194.105118696494	0.105567653512026	stim15_sf2_pattern2_cont2_shape2.png	2	2	2	2	1	1	0	0	0	0	0	0	0	0	0	0	0	0	1	11
146.9345703125	0.100008621382585	300922	3	14	stim14_sf2_pattern2_cont2_shape1.png	0	3	0	194.505115939997	194.60512456138	0.100008621382585	stim14_sf2_pattern2_cont2_shape1.png	2	2	2	1	1	1	0	0	0	0	0	0	0	0	0	0	0	0	1	11
147.43408203125	0.0999948389003293	301945	4	6	stim06_sf1_pattern2_cont2_shape1.png	0	4	0	195.005118285952	195.105113124852	0.0999948389003293	stim06_sf1_pattern2_cont2_shape1.png	1	2	2	1	1	3	0	0	0	0	0	0	0	0	0	0	0	0	1	11
147.93408203125	0.0999968916103171	302969	5	3	stim03_sf1_pattern1_cont2_shape2.png	0	5	0	195.505113594043	195.605110485653	0.0999968916103171	stim03_sf1_pattern1_cont2_shape2.png	1	1	2	2	1	4	0	0	0	0	0	0	0	0	0	0	0	0	1	11
148.43408203125	0.099939122484102	303993	6	11	stim11_sf2_pattern1_cont2_shape2.png	0	6	0	196.005126790036	196.10506591252	0.099939122484102	stim11_sf2_pattern1_cont2_shape2.png	2	1	2	2	1	2	0	0	0	0	0	0	0	0	0	0	0	0	1	11
148.93408203125	0.0999493860344955	305017	7	0	stim00_sf1_pattern1_cont1_shape1.png	0	7	0	196.505126790036	196.605076176071	0.0999493860344955	stim00_sf1_pattern1_cont1_shape1.png	1	1	1	1	1	4	0	0	0	0	0	0	0	0	0	0	0	0	1	11
149.43408203125	0.0999983578321917	306041	8	8	stim08_sf2_pattern1_cont1_shape1.png	0	8	0	197.005075472284	197.105073830116	0.0999983578321917	stim08_sf2_pattern1_cont1_shape1.png	2	1	1	1	1	2	0	0	0	0	0	0	0	0	0	0	0	0	1	11
149.93408203125	0.0999921997017736	307065	9	9	stim09_sf2_pattern1_cont1_shape2.png	0	9	0	197.505059343848	197.60505154355	0.0999921997017736	stim09_sf2_pattern1_cont1_shape2.png	2	1	1	2	1	2	0	0	0	0	0	0	0	0	0	0	0	0	1	11
150.4423828125	0.100019471421547	308106	10	10	stim10_sf2_pattern1_cont2_shape1.png	0	10	0	198.013356984463	198.113376455884	0.100019471421547	stim10_sf2_pattern1_cont2_shape1.png	2	1	2	1	1	2	0	0	0	0	0	0	0	0	0	0	0	0	1	11
150.9423828125	0.0999696198909987	309130	11	13	stim13_sf2_pattern2_cont1_shape2.png	0	11	0	198.513361676372	198.613331296263	0.0999696198909987	stim13_sf2_pattern2_cont1_shape2.png	2	2	1	2	1	1	0	0	0	0	0	0	0	0	0	0	0	0	1	11
151.4423828125	0.100012726802561	310154	12	12	stim12_sf2_pattern2_cont1_shape1.png	0	12	0	199.013330592476	199.113343319279	0.100012726802561	stim12_sf2_pattern2_cont1_shape1.png	2	2	1	1	1	1	0	0	0	0	0	0	0	0	0	0	0	0	1	11
151.9423828125	0.099997771343169	311178	13	7	stim07_sf1_pattern2_cont2_shape2.png	0	13	0	199.513319449193	199.613317220536	0.099997771343169	stim07_sf1_pattern2_cont2_shape2.png	1	2	2	2	1	3	0	0	0	0	0	0	0	0	0	0	0	0	1	11
152.4423828125	0.0996101023833944	312202	14	2	stim02_sf1_pattern1_cont2_shape1.png	0	14	0	200.013680726167	200.11329082855	0.0996101023833944	stim02_sf1_pattern1_cont2_shape1.png	1	1	2	1	1	4	0	0	0	0	0	0	0	0	0	0	0	0	1	11
152.9423828125	0.100006568672597	313226	15	4	stim04_sf1_pattern2_cont1_shape1.png	0	15	0	200.513281913923	200.613288482596	0.100006568672597	stim04_sf1_pattern2_cont1_shape1.png	1	2	1	1	1	3	0	0	0	0	0	0	0	0	0	0	0	0	1	11
153.4423828125	0.100010967336857	314250	16	5	stim05_sf1_pattern2_cont1_shape2.png	0	16	0	201.013282207167	201.113293174504	0.100010967336857	stim05_sf1_pattern2_cont1_shape2.png	1	2	1	2	1	3	0	0	0	0	0	0	0	0	0	0	0	0	1	11
153.9423828125	0.100009501115437	315274	17	3	stim03_sf1_pattern1_cont2_shape2.png	0	17	0	201.513281913923	201.613291415038	0.100009501115437	stim03_sf1_pattern1_cont2_shape2.png	1	1	2	2	1	4	0	0	0	0	0	0	0	0	0	0	0	0	1	11
154.4423828125	0.0999992375645888	316298	18	2	stim02_sf1_pattern1_cont2_shape1.png	0	18	0	202.013294523428	202.113293760993	0.0999992375645888	stim02_sf1_pattern1_cont2_shape1.png	1	1	2	1	1	4	0	0	0	0	0	0	0	0	0	0	0	0	1	11
154.9423828125	0.10002005790966	317322	19	12	stim12_sf2_pattern2_cont1_shape1.png	0	19	0	202.513251709761	202.613271767671	0.10002005790966	stim12_sf2_pattern2_cont1_shape1.png	2	2	1	1	1	1	0	0	0	0	0	0	0	0	0	0	0	0	1	11
155.4423828125	0.100004809206439	318346	20	7	stim07_sf1_pattern2_cont2_shape2.png	0	20	0	203.013271063884	203.113275873091	0.100004809206439	stim07_sf1_pattern2_cont2_shape2.png	1	2	2	2	1	3	0	0	0	0	0	0	0	0	0	0	0	0	1	11
155.9423828125	0.0999977713436238	319370	21	9	stim09_sf2_pattern1_cont1_shape2.png	0	21	0	203.513271650373	203.613269421716	0.0999977713436238	stim09_sf2_pattern1_cont1_shape2.png	2	1	1	2	1	2	0	0	0	0	0	0	0	0	0	0	0	0	1	11
156.4423828125	0.0999924929460576	320394	22	13	stim13_sf2_pattern2_cont1_shape2.png	0	22	0	204.013261093578	204.113253586524	0.0999924929460576	stim13_sf2_pattern2_cont1_shape2.png	2	2	1	2	1	1	0	0	0	0	0	0	0	0	0	0	0	0	1	11
156.9423828125	0.0999963051222039	321418	23	15	stim15_sf2_pattern2_cont2_shape2.png	0	23	0	204.513240566477	204.613236871599	0.0999963051222039	stim15_sf2_pattern2_cont2_shape2.png	2	2	2	2	1	1	0	0	0	0	0	0	0	0	0	0	0	0	1	11
157.4423828125	0.099991613212751	322442	24	8	stim08_sf2_pattern1_cont1_shape1.png	0	24	0	205.013230596172	205.113222209384	0.099991613212751	stim08_sf2_pattern1_cont1_shape1.png	2	1	1	1	1	2	0	0	0	0	0	0	0	0	0	0	0	0	1	11
157.9423828125	0.0999704996238506	323466	25	0	stim00_sf1_pattern1_cont1_shape1.png	0	25	0	205.513238220523	205.613208720147	0.0999704996238506	stim00_sf1_pattern1_cont1_shape1.png	1	1	1	1	1	4	0	0	0	0	0	0	0	0	0	0	0	0	1	11
158.4423828125	0.0999945456560454	324490	26	4	stim04_sf1_pattern2_cont1_shape1.png	0	26	0	206.013205083917	206.113199629574	0.0999945456560454	stim04_sf1_pattern2_cont1_shape1.png	1	2	1	1	1	3	0	0	0	0	0	0	0	0	0	0	0	0	1	11
158.9423828125	0.100003342985019	325514	27	1	stim01_sf1_pattern1_cont1_shape2.png	0	27	0	206.513174000022	206.613177343007	0.100003342985019	stim01_sf1_pattern1_cont1_shape2.png	1	1	1	2	1	4	0	0	0	0	0	0	0	0	0	0	0	0	1	11
159.4423828125	0.100000410542179	326538	28	6	stim06_sf1_pattern2_cont2_shape1.png	0	28	0	207.013177225709	207.113177636251	0.100000410542179	stim06_sf1_pattern2_cont2_shape1.png	1	2	2	1	1	3	0	0	0	0	0	0	0	0	0	0	0	0	1	11
159.9423828125	0.100002463252167	327562	29	10	stim10_sf2_pattern1_cont2_shape1.png	0	29	0	207.513151420211	207.613153883463	0.100002463252167	stim10_sf2_pattern1_cont2_shape1.png	2	1	2	1	1	2	0	0	0	0	0	0	0	0	0	0	0	0	1	11
160.4423828125	0.0999599428291731	328586	30	11	stim11_sf2_pattern1_cont2_shape2.png	0	30	0	208.013177225709	208.113137168538	0.0999599428291731	stim11_sf2_pattern1_cont2_shape2.png	2	1	2	2	1	2	0	0	0	0	0	0	0	0	0	0	0	0	1	11
160.9423828125	0.0999919064574897	329610	31	14	stim14_sf2_pattern2_cont2_shape1.png	0	31	0	208.513144675592	208.61313658205	0.0999919064574897	stim14_sf2_pattern2_cont2_shape1.png	2	2	2	1	1	1	0	0	0	0	0	0	0	0	0	0	0	0	1	11
161.4423828125	0.0999631685167515	330634	32	5	stim05_sf1_pattern2_cont1_shape2.png	0	32	0	209.013145262081	209.113108430598	0.0999631685167515	stim05_sf1_pattern2_cont1_shape2.png	1	2	1	2	1	3	0	0	0	0	0	0	0	0	0	0	0	0	1	11
161.9423828125	0.100008914626414	331658	33	0	stim00_sf1_pattern1_cont1_shape1.png	0	33	0	209.513103914635	209.613112829262	0.100008914626414	stim00_sf1_pattern1_cont1_shape1.png	1	1	1	1	1	4	0	0	0	0	0	0	0	0	0	0	0	0	1	11
162.4423828125	0.100008034893563	332682	34	7	stim07_sf1_pattern2_cont2_shape2.png	0	34	0	210.013103914635	210.113111949529	0.100008034893563	stim07_sf1_pattern2_cont2_shape2.png	1	2	2	2	1	3	0	0	0	0	0	0	0	0	0	0	0	0	1	11
162.9423828125	0.0999951321446133	333706	35	9	stim09_sf2_pattern1_cont1_shape2.png	0	35	0	210.513094530818	210.613089662962	0.0999951321446133	stim09_sf2_pattern1_cont1_shape2.png	2	1	1	2	1	2	0	0	0	0	0	0	0	0	0	0	0	0	1	11
163.4423828125	0.0999957186331812	334730	36	10	stim10_sf2_pattern1_cont2_shape1.png	0	36	0	211.013082507802	211.113078226435	0.0999957186331812	stim10_sf2_pattern1_cont2_shape1.png	2	1	2	1	1	2	0	0	0	0	0	0	0	0	0	0	0	0	1	11
163.9423828125	0.100016538978252	335754	37	2	stim02_sf1_pattern1_cont2_shape1.png	0	37	0	211.513034708981	211.613051247959	0.100016538978252	stim02_sf1_pattern1_cont2_shape1.png	1	1	2	1	1	4	0	0	0	0	0	0	0	0	0	0	0	0	1	11
164.4423828125	0.0999933726789095	336778	38	13	stim13_sf2_pattern2_cont1_shape2.png	0	38	0	212.013059634746	212.113053007425	0.0999933726789095	stim13_sf2_pattern2_cont1_shape2.png	2	2	1	2	1	1	0	0	0	0	0	0	0	0	0	0	0	0	1	11
164.9423828125	0.0999737253109743	337802	39	15	stim15_sf2_pattern2_cont2_shape2.png	0	39	0	212.513030017073	212.613003742384	0.0999737253109743	stim15_sf2_pattern2_cont2_shape2.png	2	2	2	2	1	1	0	0	0	0	0	0	0	0	0	0	0	0	1	11
165.4423828125	0.0999813496623574	338826	40	6	stim06_sf1_pattern2_cont2_shape1.png	0	40	0	213.013029430584	213.113010780246	0.0999813496623574	stim06_sf1_pattern2_cont2_shape1.png	1	2	2	1	1	3	0	0	0	0	0	0	0	0	0	0	0	0	1	11
165.94189453125	0.0999910267246378	339849	41	11	stim11_sf2_pattern1_cont2_shape2.png	0	41	0	213.513000985887	213.612992012612	0.0999910267246378	stim11_sf2_pattern1_cont2_shape2.png	2	1	2	2	1	2	0	0	0	0	0	0	0	0	0	0	0	0	1	11
166.44189453125	0.100018591688695	340873	42	3	stim03_sf1_pattern1_cont2_shape2.png	0	42	0	214.012973127679	214.112991719368	0.100018591688695	stim03_sf1_pattern1_cont2_shape2.png	1	1	2	2	1	4	0	0	0	0	0	0	0	0	0	0	0	0	1	11
166.94189453125	0.0999807631742442	341897	43	4	stim04_sf1_pattern2_cont1_shape1.png	0	43	0	214.512972834435	214.612953597609	0.0999807631742442	stim04_sf1_pattern2_cont1_shape1.png	1	2	1	1	1	3	0	0	0	0	0	0	0	0	0	0	0	0	1	11
167.44189453125	0.100005688939291	342921	44	8	stim08_sf2_pattern1_cont1_shape1.png	0	44	0	215.012949961379	215.112955650319	0.100005688939291	stim08_sf2_pattern1_cont1_shape1.png	2	1	1	1	1	2	0	0	0	0	0	0	0	0	0	0	0	0	1	11
167.94189453125	0.0999801766856763	343945	45	14	stim14_sf2_pattern2_cont2_shape1.png	0	45	0	215.512936472142	215.612916648828	0.0999801766856763	stim14_sf2_pattern2_cont2_shape1.png	2	2	2	1	1	1	0	0	0	0	0	0	0	0	0	0	0	0	1	11
168.44189453125	0.10001712546682	344969	46	12	stim12_sf2_pattern2_cont1_shape1.png	0	46	0	216.01291447882	216.112931604287	0.10001712546682	stim12_sf2_pattern2_cont1_shape1.png	2	2	1	1	1	1	0	0	0	0	0	0	0	0	0	0	0	0	1	11
168.94189453125	0.100040585010447	345993	47	1	stim01_sf1_pattern1_cont1_shape2.png	0	47	0	216.512892485498	216.612933070508	0.100040585010447	stim01_sf1_pattern1_cont1_shape2.png	1	1	1	2	1	4	0	0	0	0	0	0	0	0	0	0	0	0	1	11
169.44189453125	0.0999977713436238	347017	48	11	stim11_sf2_pattern1_cont2_shape2.png	0	48	0	217.012920050461	217.112917821805	0.0999977713436238	stim11_sf2_pattern1_cont2_shape2.png	2	1	2	2	1	2	0	0	0	0	0	0	0	0	0	0	0	0	1	11
169.94189453125	0.099997771343169	348041	49	1	stim01_sf1_pattern1_cont1_shape2.png	0	49	0	217.512896884162	217.612894655505	0.099997771343169	stim01_sf1_pattern1_cont1_shape2.png	1	1	1	2	1	4	0	0	0	0	0	0	0	0	0	0	0	0	1	11
170.44189453125	0.09998897401465	349065	50	6	stim06_sf1_pattern2_cont2_shape1.png	0	50	0	218.012898643628	218.112887617642	0.09998897401465	stim06_sf1_pattern2_cont2_shape1.png	1	2	2	1	1	3	0	0	0	0	0	0	0	0	0	0	0	0	1	11
170.94189453125	0.0999986510760209	350089	51	4	stim04_sf1_pattern2_cont1_shape1.png	0	51	0	218.512892485498	218.612891136574	0.0999986510760209	stim04_sf1_pattern2_cont1_shape1.png	1	2	1	1	1	3	0	0	0	0	0	0	0	0	0	0	0	0	1	11
171.44189453125	0.100003636229303	351113	52	15	stim15_sf2_pattern2_cont2_shape2.png	0	52	0	219.012886913856	219.112890550085	0.100003636229303	stim15_sf2_pattern2_cont2_shape2.png	2	2	2	2	1	1	0	0	0	0	0	0	0	0	0	0	0	0	1	11
171.94189453125	0.100011847069254	352137	53	2	stim02_sf1_pattern1_cont2_shape1.png	0	53	0	219.512859348892	219.612871195961	0.100011847069254	stim02_sf1_pattern1_cont2_shape1.png	1	1	2	1	1	4	0	0	0	0	0	0	0	0	0	0	0	0	1	11
172.44189453125	0.0999960118774652	353161	54	0	stim00_sf1_pattern1_cont1_shape1.png	0	54	0	220.012862574579	220.112858586457	0.0999960118774652	stim00_sf1_pattern1_cont1_shape1.png	1	1	1	1	1	4	0	0	0	0	0	0	0	0	0	0	0	0	1	11
172.94189453125	0.100036186346188	354185	55	5	stim05_sf1_pattern2_cont1_shape2.png	0	55	0	220.512837648814	220.61287383516	0.100036186346188	stim05_sf1_pattern2_cont1_shape2.png	1	2	1	2	1	3	0	0	0	0	0	0	0	0	0	0	0	0	1	11
173.44189453125	0.0999872145489462	355209	56	3	stim03_sf1_pattern1_cont2_shape2.png	0	56	0	221.012836769081	221.11282398363	0.0999872145489462	stim03_sf1_pattern1_cont2_shape2.png	1	1	2	2	1	4	0	0	0	0	0	0	0	0	0	0	0	0	1	11
173.94189453125	0.0999989443207596	356233	57	12	stim12_sf2_pattern2_cont1_shape1.png	0	57	0	221.512813309537	221.612812253858	0.0999989443207596	stim12_sf2_pattern2_cont1_shape1.png	2	2	1	1	1	1	0	0	0	0	0	0	0	0	0	0	0	0	1	11
174.44189453125	0.0999924929460576	357257	58	7	stim07_sf1_pattern2_cont2_shape2.png	0	58	0	222.012815948736	222.112808441682	0.0999924929460576	stim07_sf1_pattern2_cont2_shape2.png	1	2	2	2	1	3	0	0	0	0	0	0	0	0	0	0	0	0	1	11
174.94189453125	0.0999916132132057	358281	59	8	stim08_sf2_pattern1_cont1_shape1.png	0	59	0	222.512805098697	222.61279671191	0.0999916132132057	stim08_sf2_pattern1_cont1_shape1.png	2	1	1	1	1	2	0	0	0	0	0	0	0	0	0	0	0	0	1	11
175.44189453125	0.0999989443203049	359305	60	9	stim09_sf2_pattern1_cont1_shape2.png	0	60	0	223.012786624307	223.112785568627	0.0999989443203049	stim09_sf2_pattern1_cont1_shape2.png	2	1	1	2	1	2	0	0	0	0	0	0	0	0	0	0	0	0	1	11
175.94189453125	0.100012433558277	360329	61	14	stim14_sf2_pattern2_cont2_shape1.png	0	61	0	223.512761112052	223.612773545611	0.100012433558277	stim14_sf2_pattern2_cont2_shape1.png	2	2	2	1	1	1	0	0	0	0	0	0	0	0	0	0	0	0	1	11
176.44189453125	0.0999936659231935	361353	62	10	stim10_sf2_pattern1_cont2_shape1.png	0	62	0	224.012765803961	224.112759469885	0.0999936659231935	stim10_sf2_pattern1_cont2_shape1.png	2	1	2	1	1	2	0	0	0	0	0	0	0	0	0	0	0	0	1	11
176.94189453125	0.100008621382131	362377	63	13	stim13_sf2_pattern2_cont1_shape2.png	0	63	0	224.512734426822	224.612743048204	0.100008621382131	stim13_sf2_pattern2_cont1_shape2.png	2	2	1	2	1	1	0	0	0	0	0	0	0	0	0	0	0	0	1	11
177.44189453125	0.0999945456560454	363401	64	5	stim05_sf1_pattern2_cont1_shape2.png	0	64	0	225.012740291707	225.112734837363	0.0999945456560454	stim05_sf1_pattern2_cont1_shape2.png	1	2	1	2	1	3	0	0	0	0	0	0	0	0	0	0	0	0	1	11
177.94189453125	0.100003342985019	364425	65	3	stim03_sf1_pattern1_cont2_shape2.png	0	65	0	225.512711847011	225.612715189996	0.100003342985019	stim03_sf1_pattern1_cont2_shape2.png	1	1	2	2	1	4	0	0	0	0	0	0	0	0	0	0	0	0	1	11
178.44189453125	0.0999957186331812	365449	66	2	stim02_sf1_pattern1_cont2_shape1.png	0	66	0	226.012715072698	226.112710791331	0.0999957186331812	stim02_sf1_pattern1_cont2_shape1.png	1	1	2	1	1	4	0	0	0	0	0	0	0	0	0	0	0	0	1	11
178.94189453125	0.100019178177263	366473	67	8	stim08_sf2_pattern1_cont1_shape1.png	0	67	0	226.51268721449	226.612706392667	0.100019178177263	stim08_sf2_pattern1_cont1_shape1.png	2	1	1	1	1	2	0	0	0	0	0	0	0	0	0	0	0	0	1	11
179.44189453125	0.0999954253888973	367497	68	9	stim09_sf2_pattern1_cont1_shape2.png	0	68	0	227.012694252353	227.112689677742	0.0999954253888973	stim09_sf2_pattern1_cont1_shape2.png	2	1	1	2	1	2	0	0	0	0	0	0	0	0	0	0	0	0	1	11
179.94189453125	0.100009501114982	368521	69	15	stim15_sf2_pattern2_cont2_shape2.png	0	69	0	227.512662581969	227.612672083084	0.100009501114982	stim15_sf2_pattern2_cont2_shape2.png	2	2	2	2	1	1	0	0	0	0	0	0	0	0	0	0	0	0	1	11
180.44189453125	0.0999992375650436	369545	70	1	stim01_sf1_pattern1_cont1_shape2.png	0	70	0	228.012664927923	228.112664165488	0.0999992375650436	stim01_sf1_pattern1_cont1_shape2.png	1	1	1	2	1	4	0	0	0	0	0	0	0	0	0	0	0	0	1	11
180.94189453125	0.0999567171415947	370569	71	13	stim13_sf2_pattern2_cont1_shape2.png	0	71	0	228.512637656204	228.612594373345	0.0999567171415947	stim13_sf2_pattern2_cont1_shape2.png	2	2	1	2	1	1	0	0	0	0	0	0	0	0	0	0	0	0	1	11
181.44189453125	0.100014193023981	371593	72	7	stim07_sf1_pattern2_cont2_shape2.png	0	72	0	229.012641175135	229.112655368159	0.100014193023981	stim07_sf1_pattern2_cont2_shape2.png	1	2	2	2	1	3	0	0	0	0	0	0	0	0	0	0	0	0	1	11
181.94189453125	0.100000117297895	372617	73	4	stim04_sf1_pattern2_cont1_shape1.png	0	73	0	229.512603346621	229.612603463919	0.100000117297895	stim04_sf1_pattern2_cont1_shape1.png	1	2	1	1	1	3	0	0	0	0	0	0	0	0	0	0	0	0	1	11
182.44189453125	0.100023283597238	373641	74	10	stim10_sf2_pattern1_cont2_shape1.png	0	74	0	230.012589564139	230.112612847736	0.100023283597238	stim10_sf2_pattern1_cont2_shape1.png	2	1	2	1	1	2	0	0	0	0	0	0	0	0	0	0	0	0	1	11
182.94140625	0.0999872145484915	374664	75	0	stim00_sf1_pattern1_cont1_shape1.png	0	75	0	230.512585458719	230.612572673268	0.0999872145484915	stim00_sf1_pattern1_cont1_shape1.png	1	1	1	1	1	4	0	0	0	0	0	0	0	0	0	0	0	0	1	11
183.44140625	0.0999394157283859	375688	76	11	stim11_sf2_pattern1_cont2_shape2.png	0	76	0	231.012591910093	231.112531325822	0.0999394157283859	stim11_sf2_pattern1_cont2_shape2.png	2	1	2	2	1	2	0	0	0	0	0	0	0	0	0	0	0	0	1	11
183.94140625	0.0999948389003293	376712	77	12	stim12_sf2_pattern2_cont1_shape1.png	0	77	0	231.512568743794	231.612563582694	0.0999948389003293	stim12_sf2_pattern2_cont1_shape1.png	2	2	1	1	1	1	0	0	0	0	0	0	0	0	0	0	0	0	1	11
184.44140625	0.0999617022948769	377736	78	6	stim06_sf1_pattern2_cont2_shape1.png	0	78	0	232.01259103036	232.112552732655	0.0999617022948769	stim06_sf1_pattern2_cont2_shape1.png	1	2	2	1	1	3	0	0	0	0	0	0	0	0	0	0	0	0	1	11
184.94140625	0.0999965983660331	378760	79	14	stim14_sf2_pattern2_cont2_shape1.png	0	79	0	232.512547043716	232.612543642082	0.0999965983660331	stim14_sf2_pattern2_cont2_shape1.png	2	2	2	1	1	1	0	0	0	0	0	0	0	0	0	0	0	0	1	11
185.44140625	0.100011847069709	379784	80	11	stim11_sf2_pattern1_cont2_shape2.png	0	80	0	233.012530035547	233.112541882616	0.100011847069709	stim11_sf2_pattern1_cont2_shape2.png	2	1	2	2	1	2	0	0	0	0	0	0	0	0	0	0	0	0	1	11
185.94140625	0.100003929473587	380808	81	7	stim07_sf1_pattern2_cont2_shape2.png	0	81	0	233.512504816537	233.612508746011	0.100003929473587	stim07_sf1_pattern2_cont2_shape2.png	1	2	2	2	1	3	0	0	0	0	0	0	0	0	0	0	0	0	1	11
186.44140625	0.0999974780993398	381832	82	14	stim14_sf2_pattern2_cont2_shape1.png	0	82	0	234.012529155814	234.112526633913	0.0999974780993398	stim14_sf2_pattern2_cont2_shape1.png	2	2	2	1	1	1	0	0	0	0	0	0	0	0	0	0	0	0	1	11
186.94140625	0.0999804699299602	382856	83	9	stim09_sf2_pattern1_cont1_shape2.png	0	83	0	234.512492793521	234.612473263451	0.0999804699299602	stim09_sf2_pattern1_cont1_shape2.png	2	1	1	2	1	2	0	0	0	0	0	0	0	0	0	0	0	0	1	11
187.44140625	0.0999702063795667	383880	84	2	stim02_sf1_pattern1_cont2_shape1.png	0	84	0	235.012525636882	235.112495843262	0.0999702063795667	stim02_sf1_pattern1_cont2_shape1.png	1	1	2	1	1	4	0	0	0	0	0	0	0	0	0	0	0	0	1	11
187.94140625	0.100002463252167	384904	85	12	stim12_sf2_pattern2_cont1_shape1.png	0	85	0	235.512480770505	235.612483233757	0.100002463252167	stim12_sf2_pattern2_cont1_shape1.png	2	2	1	1	1	1	0	0	0	0	0	0	0	0	0	0	0	0	1	11
188.44140625	0.100003929473587	385928	86	0	stim00_sf1_pattern1_cont1_shape1.png	0	86	0	236.012460243404	236.112464172878	0.100003929473587	stim00_sf1_pattern1_cont1_shape1.png	1	1	1	1	1	4	0	0	0	0	0	0	0	0	0	0	0	0	1	11
188.94140625	0.100016832222991	386952	87	12	stim12_sf2_pattern2_cont1_shape1.png	0	87	1	236.512444408212	236.612461240435	0.100016832222991	stim12_sf2_pattern2_cont1_shape1.png	2	2	1	1	1	1	0	0	0	0	0	0	0	0	0	0	0	0	1	11
189.44140625	0.0999936659231935	387976	88	12	stim12_sf2_pattern2_cont1_shape1.png	0	88	1	237.012452325808	237.112445991731	0.0999936659231935	stim12_sf2_pattern2_cont1_shape1.png	2	2	1	1	1	1	0	0	0	0	0	0	0	0	0	0	0	0	1	11
189.94140625	0.0999813496628121	389000	89	8	stim08_sf2_pattern1_cont1_shape1.png	0	89	2	237.512440889281	237.612422238944	0.0999813496628121	stim08_sf2_pattern1_cont1_shape1.png	2	1	1	1	1	2	0	0	0	0	0	0	0	0	0	0	0	0	1	11
190.44140625	0.0999992375645888	390024	90	15	stim15_sf2_pattern2_cont2_shape2.png	0	90	2	238.012427106799	238.112426344363	0.0999992375645888	stim15_sf2_pattern2_cont2_shape2.png	2	2	2	2	1	1	0	0	0	0	0	0	0	0	0	0	0	0	1	11
190.94140625	0.100002756496451	391048	91	8	stim08_sf2_pattern1_cont1_shape1.png	0	91	0	238.512395436415	238.612398192911	0.100002756496451	stim08_sf2_pattern1_cont1_shape1.png	2	1	1	1	1	2	0	0	0	0	0	0	0	0	0	0	0	0	1	11
191.44140625	0.0999933726789095	392072	92	1	stim01_sf1_pattern1_cont1_shape2.png	0	92	0	239.012404820232	239.112398192911	0.0999933726789095	stim01_sf1_pattern1_cont1_shape2.png	1	1	1	2	1	4	0	0	0	0	0	0	0	0	0	0	0	0	1	11
191.94140625	0.0999851618385037	393096	93	3	stim03_sf1_pattern1_cont2_shape2.png	0	93	0	239.512394849926	239.612380011765	0.0999851618385037	stim03_sf1_pattern1_cont2_shape2.png	1	1	2	2	1	4	0	0	0	0	0	0	0	0	0	0	0	0	1	11
192.44140625	0.0999760712657007	394120	94	13	stim13_sf2_pattern2_cont1_shape2.png	0	94	0	240.012402181033	240.112378252299	0.0999760712657007	stim13_sf2_pattern2_cont1_shape2.png	2	2	1	2	1	1	0	0	0	0	0	0	0	0	0	0	0	0	1	11
192.94140625	0.100000410541725	395144	95	6	stim06_sf1_pattern2_cont2_shape1.png	0	95	0	240.512353795725	240.612354206266	0.100000410541725	stim06_sf1_pattern2_cont2_shape1.png	1	2	2	1	1	3	0	0	0	0	0	0	0	0	0	0	0	0	1	11
193.44140625	0.0999945456560454	396168	96	15	stim15_sf2_pattern2_cont2_shape2.png	0	96	0	241.012355261946	241.112349807602	0.0999945456560454	stim15_sf2_pattern2_cont2_shape2.png	2	2	2	2	1	1	0	0	0	0	0	0	0	0	0	0	0	0	1	11
193.94140625	0.099982815884232	397192	97	5	stim05_sf1_pattern2_cont1_shape2.png	0	97	0	241.512348810571	241.612331626456	0.099982815884232	stim05_sf1_pattern2_cont1_shape2.png	1	2	1	2	1	3	0	0	0	0	0	0	0	0	0	0	0	0	1	11
194.44140625	0.100011847069709	398216	98	4	stim04_sf1_pattern2_cont1_shape1.png	0	98	0	242.012313621256	242.112325468326	0.100011847069709	stim04_sf1_pattern2_cont1_shape1.png	1	2	1	1	1	3	0	0	0	0	0	0	0	0	0	0	0	0	1	11
194.94140625	0.100001583519315	399240	99	10	stim10_sf2_pattern1_cont2_shape1.png	0	99	0	242.512230926364	242.612232509884	0.100001583519315	stim10_sf2_pattern1_cont2_shape1.png	2	1	2	1	1	2	0	0	0	0	0	0	0	0	0	0	0	0	1	11
195.44140625	0.0999702063795667	400264	100	3	stim03_sf1_pattern1_cont2_shape2.png	0	100	0	243.012310982057	243.112281188437	0.0999702063795667	stim03_sf1_pattern1_cont2_shape2.png	1	1	2	2	1	4	0	0	0	0	0	0	0	0	0	0	0	0	1	11
195.94140625	0.100011260580686	401288	101	8	stim08_sf2_pattern1_cont1_shape1.png	0	101	0	243.512278138696	243.612289399277	0.100011260580686	stim08_sf2_pattern1_cont1_shape1.png	2	1	1	1	1	2	0	0	0	0	0	0	0	0	0	0	0	0	1	11
196.44140625	0.099976071265246	402312	102	12	stim12_sf2_pattern2_cont1_shape1.png	0	102	0	244.012298372553	244.112274443818	0.099976071265246	stim12_sf2_pattern2_cont1_shape1.png	2	2	1	1	1	1	0	0	0	0	0	0	0	0	0	0	0	0	1	11
196.94140625	0.100005982183575	403336	103	9	stim09_sf2_pattern1_cont1_shape2.png	0	103	0	244.512247934534	244.612253916717	0.100005982183575	stim09_sf2_pattern1_cont1_shape2.png	2	1	1	2	1	2	0	0	0	0	0	0	0	0	0	0	0	0	1	11
197.44140625	0.100017418711559	404360	104	2	stim02_sf1_pattern1_cont2_shape1.png	0	104	0	245.012212451973	245.112229870685	0.100017418711559	stim02_sf1_pattern1_cont2_shape1.png	1	1	2	1	1	4	0	0	0	0	0	0	0	0	0	0	0	0	1	11
197.94140625	0.0999875077927754	405384	105	0	stim00_sf1_pattern1_cont1_shape1.png	0	105	0	245.5122265277	245.612214035493	0.0999875077927754	stim00_sf1_pattern1_cont1_shape1.png	1	1	1	1	1	4	0	0	0	0	0	0	0	0	0	0	0	0	1	11
198.44140625	0.100016832222991	406408	106	14	stim14_sf2_pattern2_cont2_shape1.png	0	106	0	246.012189872163	246.112206704386	0.100016832222991	stim14_sf2_pattern2_cont2_shape1.png	2	2	2	1	1	1	0	0	0	0	0	0	0	0	0	0	0	0	1	11
198.94140625	0.0999921997017736	407432	107	6	stim06_sf1_pattern2_cont2_shape1.png	0	107	0	246.512214504684	246.612206704386	0.0999921997017736	stim06_sf1_pattern2_cont2_shape1.png	1	2	2	1	1	3	0	0	0	0	0	0	0	0	0	0	0	0	1	11
199.44140625	0.0999769509980979	408456	108	1	stim01_sf1_pattern1_cont1_shape2.png	0	108	0	247.012205120866	247.112182071864	0.0999769509980979	stim01_sf1_pattern1_cont1_shape2.png	1	1	1	2	1	4	0	0	0	0	0	0	0	0	0	0	0	0	1	11
199.94091796875	0.0999998240531568	409479	109	15	stim15_sf2_pattern2_cont2_shape2.png	0	109	0	247.512183714033	247.612183538086	0.0999998240531568	stim15_sf2_pattern2_cont2_shape2.png	2	2	2	2	1	1	0	0	0	0	0	0	0	0	0	0	0	0	1	11
200.44091796875	0.0999960118774652	410503	110	10	stim10_sf2_pattern1_cont2_shape1.png	0	110	0	248.012154976092	248.112150987969	0.0999960118774652	stim10_sf2_pattern1_cont2_shape1.png	2	1	2	1	1	2	0	0	0	0	0	0	0	0	0	0	0	0	1	11
200.94091796875	0.0999869213046622	411527	111	11	stim11_sf2_pattern1_cont2_shape2.png	0	111	0	248.512159374756	248.61214629606	0.0999869213046622	stim11_sf2_pattern1_cont2_shape2.png	2	1	2	2	1	2	0	0	0	0	0	0	0	0	0	0	0	0	1	11
201.44091796875	0.100002463252167	412551	112	13	stim13_sf2_pattern2_cont1_shape2.png	0	112	0	249.012154096359	249.112156559611	0.100002463252167	stim13_sf2_pattern2_cont1_shape2.png	2	2	1	2	1	1	0	0	0	0	0	0	0	0	0	0	0	0	1	11
201.94091796875	0.100003049740735	413575	113	5	stim05_sf1_pattern2_cont1_shape2.png	0	113	0	249.512155269336	249.612158319077	0.100003049740735	stim05_sf1_pattern2_cont1_shape2.png	1	2	1	2	1	3	0	0	0	0	0	0	0	0	0	0	0	0	1	11
202.44091796875	0.0999787104638017	414599	114	7	stim07_sf1_pattern2_cont2_shape2.png	0	114	0	250.012160254489	250.112138964953	0.0999787104638017	stim07_sf1_pattern2_cont2_shape2.png	1	2	2	2	1	3	0	0	0	0	0	0	0	0	0	0	0	0	1	11
202.94091796875	0.100025043062487	415623	115	3	stim03_sf1_pattern1_cont2_shape2.png	0	115	1	250.512117147578	250.61214219064	0.100025043062487	stim03_sf1_pattern1_cont2_shape2.png	1	1	2	2	1	4	0	0	0	0	0	0	0	0	0	0	0	0	1	11
203.44091796875	0.0998977750382437	416647	116	3	stim03_sf1_pattern1_cont2_shape2.png	0	116	1	251.012126531395	251.112024306433	0.0998977750382437	stim03_sf1_pattern1_cont2_shape2.png	1	1	2	2	1	4	0	0	0	0	0	0	0	0	0	0	0	0	1	11
203.94091796875	0.100004222717871	417671	117	8	stim08_sf2_pattern1_cont1_shape1.png	0	117	2	251.512085770438	251.612089993156	0.100004222717871	stim08_sf2_pattern1_cont1_shape1.png	2	1	1	1	1	2	0	0	0	0	0	0	0	0	0	0	0	0	1	11
204.44091796875	0.0999954253888973	418695	118	6	stim06_sf1_pattern2_cont2_shape1.png	0	118	2	252.012091048835	252.112086474224	0.0999954253888973	stim06_sf1_pattern2_cont2_shape1.png	1	2	2	1	1	3	0	0	0	0	0	0	0	0	0	0	0	0	1	11
204.94091796875	0.0999989443207596	419719	119	4	stim04_sf1_pattern2_cont1_shape1.png	0	119	0	252.512062017649	252.61206096197	0.0999989443207596	stim04_sf1_pattern2_cont1_shape1.png	1	2	1	1	1	3	0	0	0	0	0	0	0	0	0	0	0	0	1	11
205.44091796875	0.0999919064574897	420743	120	2	stim02_sf1_pattern1_cont2_shape1.png	0	120	0	253.012069642001	253.112061548459	0.0999919064574897	stim02_sf1_pattern1_cont2_shape1.png	1	1	2	1	1	4	0	0	0	0	0	0	0	0	0	0	0	0	1	11
205.94091796875	0.0999974780993398	421767	121	14	stim14_sf2_pattern2_cont2_shape1.png	0	121	0	253.512040610816	253.612038088915	0.0999974780993398	stim14_sf2_pattern2_cont2_shape1.png	2	2	2	1	1	1	0	0	0	0	0	0	0	0	0	0	0	0	1	11
206.44091796875	0.0999540779434938	422791	122	9	stim09_sf2_pattern1_cont1_shape2.png	0	122	0	254.012040610816	254.111994688759	0.0999540779434938	stim09_sf2_pattern1_cont1_shape2.png	2	1	1	2	1	2	0	0	0	0	0	0	0	0	0	0	0	0	1	11
206.94091796875	0.0999945456560454	423815	123	6	stim06_sf1_pattern2_cont2_shape1.png	0	123	0	254.512030933754	254.61202547941	0.0999945456560454	stim06_sf1_pattern2_cont2_shape1.png	1	2	2	1	1	3	0	0	0	0	0	0	0	0	0	0	0	0	1	11
207.44091796875	0.0999971848550558	424839	124	3	stim03_sf1_pattern1_cont2_shape2.png	0	124	0	255.012019203982	255.112016388837	0.0999971848550558	stim03_sf1_pattern1_cont2_shape2.png	1	1	2	2	1	4	0	0	0	0	0	0	0	0	0	0	0	0	1	11
207.94091796875	0.0999983578317369	425863	125	1	stim01_sf1_pattern1_cont1_shape2.png	0	125	0	255.511990759286	255.611989117117	0.0999983578317369	stim01_sf1_pattern1_cont1_shape2.png	1	1	1	2	1	4	0	0	0	0	0	0	0	0	0	0	0	0	1	11
208.44091796875	0.100003342985019	426887	126	13	stim13_sf2_pattern2_cont1_shape2.png	0	126	0	256.01199515795	256.111998500935	0.100003342985019	stim13_sf2_pattern2_cont1_shape2.png	2	2	1	2	1	1	0	0	0	0	0	0	0	0	0	0	0	0	1	11
208.94091796875	0.100000410542179	427911	127	0	stim00_sf1_pattern1_cont1_shape1.png	0	127	0	256.511964074055	256.611964484597	0.100000410542179	stim00_sf1_pattern1_cont1_shape1.png	1	1	1	1	1	4	0	0	0	0	0	0	0	0	0	0	0	0	1	11
209.44091796875	0.0999939591674774	428935	128	4	stim04_sf1_pattern2_cont1_shape1.png	0	128	0	257.011971405162	257.11196536433	0.0999939591674774	stim04_sf1_pattern2_cont1_shape1.png	1	2	1	1	1	3	0	0	0	0	0	0	0	0	0	0	0	0	1	11
209.94091796875	0.100008914626414	429959	129	12	stim12_sf2_pattern2_cont1_shape1.png	0	129	0	257.51195146455	257.611960379176	0.100008914626414	stim12_sf2_pattern2_cont1_shape1.png	2	2	1	1	1	1	0	0	0	0	0	0	0	0	0	0	0	0	1	11
210.44091796875	0.0999904402360698	430983	130	7	stim07_sf1_pattern2_cont2_shape2.png	0	130	0	258.011951757794	258.11194219803	0.0999904402360698	stim07_sf1_pattern2_cont2_shape2.png	1	2	2	2	1	3	0	0	0	0	0	0	0	0	0	0	0	0	1	11
210.94091796875	0.100017711955388	432007	131	5	stim05_sf1_pattern2_cont1_shape2.png	0	131	0	258.511917154967	258.611934866923	0.100017711955388	stim05_sf1_pattern2_cont1_shape2.png	1	2	1	2	1	3	0	0	0	0	0	0	0	0	0	0	0	0	1	11
211.44091796875	0.099997478098885	433031	132	8	stim08_sf2_pattern1_cont1_shape1.png	0	132	0	259.011919794166	259.111917272265	0.099997478098885	stim08_sf2_pattern1_cont1_shape1.png	2	1	1	1	1	2	0	0	0	0	0	0	0	0	0	0	0	0	1	11
211.94091796875	0.0999819361513801	434055	133	11	stim11_sf2_pattern1_cont2_shape2.png	0	133	0	259.511903665729	259.611885601881	0.0999819361513801	stim11_sf2_pattern1_cont2_shape2.png	2	1	2	2	1	2	0	0	0	0	0	0	0	0	0	0	0	0	1	11
212.44091796875	0.0999719658452705	435079	134	15	stim15_sf2_pattern2_cont2_shape2.png	0	134	0	260.011901026531	260.111872992376	0.0999719658452705	stim15_sf2_pattern2_cont2_shape2.png	2	2	2	2	1	1	0	0	0	0	0	0	0	0	0	0	0	0	1	11
212.94091796875	0.10003559985762	436103	135	10	stim10_sf2_pattern1_cont2_shape1.png	0	135	0	260.511843550649	260.611879150506	0.10003559985762	stim10_sf2_pattern1_cont2_shape1.png	2	1	2	1	1	2	0	0	0	0	0	0	0	0	0	0	0	0	1	11
213.44091796875	0.0999910267246378	437127	136	7	stim07_sf1_pattern2_cont2_shape2.png	0	136	0	261.011856160153	261.111847186878	0.0999910267246378	stim07_sf1_pattern2_cont2_shape2.png	1	2	2	2	1	3	0	0	0	0	0	0	0	0	0	0	0	0	1	11
213.94091796875	0.100001290275031	438151	137	4	stim04_sf1_pattern2_cont1_shape1.png	0	137	0	261.511827422212	261.611828712487	0.100001290275031	stim04_sf1_pattern2_cont1_shape1.png	1	2	1	1	1	3	0	0	0	0	0	0	0	0	0	0	0	0	1	11
214.44091796875	0.099995425389352	439175	138	3	stim03_sf1_pattern1_cont2_shape2.png	0	138	0	262.011829181678	262.111824607067	0.099995425389352	stim03_sf1_pattern1_cont2_shape2.png	1	1	2	2	1	4	0	0	0	0	0	0	0	0	0	0	0	0	1	11
214.94091796875	0.10002416333009	440199	139	9	stim09_sf2_pattern1_cont1_shape2.png	0	139	0	262.511783435568	262.611807598898	0.10002416333009	stim09_sf2_pattern1_cont1_shape2.png	2	1	1	2	1	2	0	0	0	0	0	0	0	0	0	0	0	0	1	11
215.44091796875	0.0999898537470472	441223	140	0	stim00_sf1_pattern1_cont1_shape1.png	0	140	0	263.011812759998	263.111802613745	0.0999898537470472	stim00_sf1_pattern1_cont1_shape1.png	1	1	1	1	1	4	0	0	0	0	0	0	0	0	0	0	0	0	1	11
215.94091796875	0.0999919064574897	442247	141	15	stim15_sf2_pattern2_cont2_shape2.png	0	141	0	263.511805722134	263.611797628592	0.0999919064574897	stim15_sf2_pattern2_cont2_shape2.png	2	2	2	2	1	1	0	0	0	0	0	0	0	0	0	0	0	0	1	11
216.44091796875	0.0999839888613678	443271	142	2	stim02_sf1_pattern1_cont2_shape1.png	0	142	0	264.011796045073	264.111780033934	0.0999839888613678	stim02_sf1_pattern1_cont2_shape1.png	1	1	2	1	1	4	0	0	0	0	0	0	0	0	0	0	0	0	1	11
216.94091796875	0.100019178176808	444295	143	1	stim01_sf1_pattern1_cont1_shape2.png	0	143	0	264.511778157171	264.611797335348	0.100019178176808	stim01_sf1_pattern1_cont1_shape2.png	1	1	1	2	1	4	0	0	0	0	0	0	0	0	0	0	0	0	1	11
217.4404296875	0.0999963051222039	445318	144	6	stim06_sf1_pattern2_cont2_shape1.png	0	144	0	265.011787834232	265.111784139354	0.0999963051222039	stim06_sf1_pattern2_cont2_shape1.png	1	2	2	1	1	3	0	0	0	0	0	0	0	0	0	0	0	0	1	11
217.9404296875	0.0999936659231935	446342	145	5	stim05_sf1_pattern2_cont1_shape2.png	0	145	0	265.511769066597	265.611762732521	0.0999936659231935	stim05_sf1_pattern2_cont1_shape2.png	1	2	1	2	1	3	0	0	0	0	0	0	0	0	0	0	0	0	1	11
218.4404296875	0.0999901469917859	447366	146	14	stim14_sf2_pattern2_cont2_shape1.png	0	146	0	266.011760562513	266.111750709505	0.0999901469917859	stim14_sf2_pattern2_cont2_shape1.png	2	2	2	1	1	1	0	0	0	0	0	0	0	0	0	0	0	0	1	11
218.9404296875	0.0999740185552582	448390	147	11	stim11_sf2_pattern1_cont2_shape2.png	0	147	0	266.51176789362	266.611741912176	0.0999740185552582	stim11_sf2_pattern1_cont2_shape2.png	2	1	2	2	1	2	0	0	0	0	0	0	0	0	0	0	0	0	1	11
219.4404296875	0.0999883875256273	449414	148	12	stim12_sf2_pattern2_cont1_shape1.png	0	148	0	267.011738862435	267.11172724996	0.0999883875256273	stim12_sf2_pattern2_cont1_shape1.png	2	2	1	1	1	1	0	0	0	0	0	0	0	0	0	0	0	0	1	11
219.9404296875	0.0999804699299602	450438	149	13	stim13_sf2_pattern2_cont1_shape2.png	0	149	0	267.51172420022	267.61170467015	0.0999804699299602	stim13_sf2_pattern2_cont1_shape2.png	2	2	1	2	1	1	0	0	0	0	0	0	0	0	0	0	0	0	1	11
220.4404296875	0.0999971848546011	451462	150	10	stim10_sf2_pattern1_cont2_shape1.png	0	150	0	268.011707778539	268.111704963394	0.0999971848546011	stim10_sf2_pattern1_cont2_shape1.png	2	1	2	1	1	2	0	0	0	0	0	0	0	0	0	0	0	0	1	11
220.9404296875	0.0999831091285159	452486	151	8	stim08_sf2_pattern1_cont1_shape1.png	0	151	0	268.511701913653	268.611685022782	0.0999831091285159	stim08_sf2_pattern1_cont1_shape1.png	2	1	1	1	1	2	0	0	0	0	0	0	0	0	0	0	0	0	1	11
221.4404296875	0.099997478098885	453510	152	11	stim11_sf2_pattern1_cont2_shape2.png	0	152	0	269.011684025751	269.11168150385	0.099997478098885	stim11_sf2_pattern1_cont2_shape2.png	2	1	2	2	1	2	0	0	0	0	0	0	0	0	0	0	0	0	1	11
221.9404296875	0.10004967558416	454534	153	1	stim01_sf1_pattern1_cont1_shape2.png	0	153	0	269.511608075478	269.611657751062	0.10004967558416	stim01_sf1_pattern1_cont1_shape2.png	1	1	1	2	1	4	0	0	0	0	0	0	0	0	0	0	0	0	1	11
222.4404296875	0.100000703786463	455558	154	9	stim09_sf2_pattern1_cont1_shape2.png	0	154	0	270.011657633765	270.111658337551	0.100000703786463	stim09_sf2_pattern1_cont1_shape2.png	2	1	1	2	1	2	0	0	0	0	0	0	0	0	0	0	0	0	1	11
222.9404296875	0.0999965983660331	456582	155	14	stim14_sf2_pattern2_cont2_shape1.png	0	155	0	270.511647663458	270.611644261824	0.0999965983660331	stim14_sf2_pattern2_cont2_shape1.png	2	2	2	1	1	1	0	0	0	0	0	0	0	0	0	0	0	0	1	11
223.4404296875	0.0999986510764757	457606	156	6	stim06_sf1_pattern2_cont2_shape1.png	0	156	0	271.011635640442	271.111634291519	0.0999986510764757	stim06_sf1_pattern2_cont2_shape1.png	1	2	2	1	1	3	0	0	0	0	0	0	0	0	0	0	0	0	1	11
223.9404296875	0.100014779512549	458630	157	12	stim12_sf2_pattern2_cont1_shape1.png	0	157	0	271.511604849791	271.611619629304	0.100014779512549	stim12_sf2_pattern2_cont1_shape1.png	2	2	1	1	1	1	0	0	0	0	0	0	0	0	0	0	0	0	1	11
224.4404296875	0.0999751915323941	459654	158	2	stim02_sf1_pattern1_cont2_shape1.png	0	158	0	272.011614233609	272.111589425141	0.0999751915323941	stim02_sf1_pattern1_cont2_shape1.png	1	1	2	1	1	4	0	0	0	0	0	0	0	0	0	0	0	0	1	11
224.9404296875	0.0999751915328488	460678	159	10	stim10_sf2_pattern1_cont2_shape1.png	0	159	0	272.511586082156	272.611561273689	0.0999751915328488	stim10_sf2_pattern1_cont2_shape1.png	2	1	2	1	1	2	0	0	0	0	0	0	0	0	0	0	0	0	1	11
225.4404296875	0.0999939591674774	461702	160	15	stim15_sf2_pattern2_cont2_shape2.png	0	160	0	273.011592240287	273.111586199454	0.0999939591674774	stim15_sf2_pattern2_cont2_shape2.png	2	2	2	2	1	1	0	0	0	0	0	0	0	0	0	0	0	0	1	11
225.9404296875	0.100019764665376	462726	161	4	stim04_sf1_pattern2_cont1_shape1.png	0	161	0	273.511560863147	273.611580627812	0.100019764665376	stim04_sf1_pattern2_cont1_shape1.png	1	2	1	1	1	3	0	0	0	0	0	0	0	0	0	0	0	0	1	11
226.4404296875	0.100007155161165	463750	162	5	stim05_sf1_pattern2_cont1_shape2.png	0	162	0	274.011554118528	274.111561273689	0.100007155161165	stim05_sf1_pattern2_cont1_shape2.png	1	2	1	2	1	3	0	0	0	0	0	0	0	0	0	0	0	0	1	11
226.9404296875	0.0999725523338384	464774	163	3	stim03_sf1_pattern1_cont2_shape2.png	0	163	0	274.511561449635	274.611534001969	0.0999725523338384	stim03_sf1_pattern1_cont2_shape2.png	1	1	2	2	1	4	0	0	0	0	0	0	0	0	0	0	0	0	1	11
227.4404296875	0.100021230886796	465798	164	8	stim08_sf2_pattern1_cont1_shape1.png	0	164	0	275.011537110359	275.111558341246	0.100021230886796	stim08_sf2_pattern1_cont1_shape1.png	2	1	1	1	1	2	0	0	0	0	0	0	0	0	0	0	0	0	1	11
227.9404296875	0.0999983578321917	466822	165	7	stim07_sf1_pattern2_cont2_shape2.png	0	165	0	275.511511011616	275.611509369448	0.0999983578321917	stim07_sf1_pattern2_cont2_shape2.png	1	2	2	2	1	3	0	0	0	0	0	0	0	0	0	0	0	0	1	11
228.4404296875	0.100000997030293	467846	166	13	stim13_sf2_pattern2_cont1_shape2.png	0	166	0	276.011492243982	276.111493241012	0.100000997030293	stim13_sf2_pattern2_cont1_shape2.png	2	2	1	2	1	1	0	0	0	0	0	0	0	0	0	0	0	0	1	11
228.9404296875	0.10003706607904	468870	167	0	stim00_sf1_pattern1_cont1_shape1.png	0	167	0	276.511447670848	276.611484736927	0.10003706607904	stim00_sf1_pattern1_cont1_shape1.png	1	1	1	1	1	4	0	0	0	0	0	0	0	0	0	0	0	0	1	11
294.7470703125	0.0999851618385037	603642	168	8	stim08_sf2_pattern1_cont1_shape1.png	1	0	0	342.318231349809	342.418216511648	0.0999851618385037	stim08_sf2_pattern1_cont1_shape1.png	2	1	1	1	1	2	0	0	0	0	0	0	0	0	0	0	0	0	1	11
295.24658203125	0.1000156592454	604665	169	4	stim04_sf1_pattern2_cont1_shape1.png	1	1	0	342.818207303777	342.918222963022	0.1000156592454	stim04_sf1_pattern2_cont1_shape1.png	1	2	1	1	1	3	0	0	0	0	0	0	0	0	0	0	0	0	1	11
295.74658203125	0.0999936659231935	605689	170	1	stim01_sf1_pattern1_cont1_shape2.png	1	2	0	343.318216687594	343.418210353518	0.0999936659231935	stim01_sf1_pattern1_cont1_shape2.png	1	1	1	2	1	4	0	0	0	0	0	0	0	0	0	0	0	0	1	11
296.24658203125	0.0999992375650436	606713	171	2	stim02_sf1_pattern1_cont2_shape1.png	1	3	0	343.818202318624	343.918201556189	0.0999992375650436	stim02_sf1_pattern1_cont2_shape1.png	1	1	2	1	1	4	0	0	0	0	0	0	0	0	0	0	0	0	1	11
296.74658203125	0.0999927861903416	607737	172	5	stim05_sf1_pattern2_cont1_shape2.png	1	4	0	344.318206717288	344.418199503479	0.0999927861903416	stim05_sf1_pattern2_cont1_shape2.png	1	2	1	2	1	3	0	0	0	0	0	0	0	0	0	0	0	0	1	11
297.24658203125	0.0999880942813434	608761	173	3	stim03_sf1_pattern1_cont2_shape2.png	1	5	0	344.818187656409	344.91817575069	0.0999880942813434	stim03_sf1_pattern1_cont2_shape2.png	1	1	2	2	1	4	0	0	0	0	0	0	0	0	0	0	0	0	1	11
297.74658203125	0.100016832222536	609785	174	9	stim09_sf2_pattern1_cont1_shape2.png	1	6	0	345.318177392859	345.418194225081	0.100016832222536	stim09_sf2_pattern1_cont1_shape2.png	2	1	1	2	1	2	0	0	0	0	0	0	0	0	0	0	0	0	1	11
298.24658203125	0.0999836956170839	610809	175	11	stim11_sf2_pattern1_cont2_shape2.png	1	7	0	345.81818501721	345.918168712828	0.0999836956170839	stim11_sf2_pattern1_cont2_shape2.png	2	1	2	2	1	2	0	0	0	0	0	0	0	0	0	0	0	0	1	11
298.74658203125	0.0999995308093276	611833	176	10	stim10_sf2_pattern1_cont2_shape1.png	1	8	0	346.318172114461	346.41817164527	0.0999995308093276	stim10_sf2_pattern1_cont2_shape1.png	2	1	2	1	1	2	0	0	0	0	0	0	0	0	0	0	0	0	1	11
299.24658203125	0.0999945456560454	612857	177	0	stim00_sf1_pattern1_cont1_shape1.png	1	9	0	346.818159504956	346.918154050612	0.0999945456560454	stim00_sf1_pattern1_cont1_shape1.png	1	1	1	1	1	4	0	0	0	0	0	0	0	0	0	0	0	0	1	11
299.74658203125	0.100002463252167	613881	178	6	stim06_sf1_pattern2_cont2_shape1.png	1	10	0	347.31814337652	347.418145839772	0.100002463252167	stim06_sf1_pattern2_cont2_shape1.png	1	2	2	1	1	3	0	0	0	0	0	0	0	0	0	0	0	0	1	11
300.24658203125	0.100001290274577	614905	179	14	stim14_sf2_pattern2_cont2_shape1.png	1	11	0	347.818111706136	347.918112996411	0.100001290274577	stim14_sf2_pattern2_cont2_shape1.png	2	2	2	1	1	1	0	0	0	0	0	0	0	0	0	0	0	0	1	11
300.74658203125	0.0999954253888973	615929	180	15	stim15_sf2_pattern2_cont2_shape2.png	1	12	0	348.318121089954	348.418116515343	0.0999954253888973	stim15_sf2_pattern2_cont2_shape2.png	2	2	2	2	1	1	0	0	0	0	0	0	0	0	0	0	0	0	1	11
301.24658203125	0.0999942524117614	616953	181	7	stim07_sf1_pattern2_cont2_shape2.png	1	13	0	348.818108187204	348.918102439616	0.0999942524117614	stim07_sf1_pattern2_cont2_shape2.png	1	2	2	2	1	3	0	0	0	0	0	0	0	0	0	0	0	0	1	11
301.74658203125	0.100002756496451	617977	182	13	stim13_sf2_pattern2_cont1_shape2.png	1	14	0	349.318098216898	349.418100973395	0.100002756496451	stim13_sf2_pattern2_cont1_shape2.png	2	2	1	2	1	1	0	0	0	0	0	0	0	0	0	0	0	0	1	11
302.24658203125	0.0999866280599235	619001	183	12	stim12_sf2_pattern2_cont1_shape1.png	1	15	0	349.818092058768	349.918078686828	0.0999866280599235	stim12_sf2_pattern2_cont1_shape1.png	2	2	1	1	1	1	0	0	0	0	0	0	0	0	0	0	0	0	1	11
302.74658203125	0.0999960118774652	620025	184	13	stim13_sf2_pattern2_cont1_shape2.png	1	16	0	350.3180724114	350.418068423278	0.0999960118774652	stim13_sf2_pattern2_cont1_shape2.png	2	2	1	2	1	1	0	0	0	0	0	0	0	0	0	0	0	0	1	11
303.24658203125	0.0999960118774652	621049	185	15	stim15_sf2_pattern2_cont2_shape2.png	1	17	0	350.818061268117	350.918057279995	0.0999960118774652	stim15_sf2_pattern2_cont2_shape2.png	2	2	2	2	1	1	0	0	0	0	0	0	0	0	0	0	0	0	1	11
303.74658203125	0.100018005199672	622073	186	6	stim06_sf1_pattern2_cont2_shape1.png	1	18	0	351.318025492313	351.418043497513	0.100018005199672	stim06_sf1_pattern2_cont2_shape1.png	1	2	2	1	1	3	0	0	0	0	0	0	0	0	0	0	0	0	1	11
304.24658203125	0.100000410541725	623097	187	9	stim09_sf2_pattern1_cont1_shape2.png	1	19	0	351.818035462619	351.918035873161	0.100000410541725	stim09_sf2_pattern1_cont1_shape2.png	2	1	1	2	1	2	0	0	0	0	0	0	0	0	0	0	0	0	1	11
304.74658203125	0.0999963051222039	624121	188	11	stim11_sf2_pattern1_cont2_shape2.png	1	20	0	352.318023732847	352.418020037969	0.0999963051222039	stim11_sf2_pattern1_cont2_shape2.png	2	1	2	2	1	2	0	0	0	0	0	0	0	0	0	0	0	0	1	11
305.24658203125	0.09999601187792	625145	189	5	stim05_sf1_pattern2_cont1_shape2.png	1	21	0	352.818011709831	352.918007721709	0.09999601187792	stim05_sf1_pattern2_cont1_shape2.png	1	2	1	2	1	3	0	0	0	0	0	0	0	0	0	0	0	0	1	11
305.74658203125	0.0999936659231935	626169	190	7	stim07_sf1_pattern2_cont2_shape2.png	1	22	0	353.318000859792	353.417994525715	0.0999936659231935	stim07_sf1_pattern2_cont2_shape2.png	1	2	2	2	1	3	0	0	0	0	0	0	0	0	0	0	0	0	1	11
306.24658203125	0.0999883875256273	627193	191	2	stim02_sf1_pattern1_cont2_shape1.png	1	23	0	353.817994994906	353.917983382432	0.0999883875256273	stim02_sf1_pattern1_cont2_shape1.png	1	1	2	1	1	4	0	0	0	0	0	0	0	0	0	0	0	0	1	11
306.74658203125	0.099991026724183	628217	192	12	stim12_sf2_pattern2_cont1_shape1.png	1	24	0	354.31798297189	354.417973998614	0.099991026724183	stim12_sf2_pattern2_cont1_shape1.png	2	2	1	1	1	1	0	0	0	0	0	0	0	0	0	0	0	0	1	11
307.24658203125	0.100000997030747	629241	193	4	stim04_sf1_pattern2_cont1_shape1.png	1	25	0	354.817948369063	354.917949366094	0.100000997030747	stim04_sf1_pattern2_cont1_shape1.png	1	2	1	1	1	3	0	0	0	0	0	0	0	0	0	0	0	0	1	11
307.74658203125	0.0999960118774652	630265	194	14	stim14_sf2_pattern2_cont2_shape1.png	1	26	0	355.317955993415	355.417952005292	0.0999960118774652	stim14_sf2_pattern2_cont2_shape1.png	2	2	2	1	1	1	0	0	0	0	0	0	0	0	0	0	0	0	1	11
308.24658203125	0.100014193023981	631289	195	3	stim03_sf1_pattern1_cont2_shape2.png	1	27	0	355.817919337878	355.917933530902	0.100014193023981	stim03_sf1_pattern1_cont2_shape2.png	1	1	2	2	1	4	0	0	0	0	0	0	0	0	0	0	0	0	1	11
308.74658203125	0.0999945456560454	632313	196	0	stim00_sf1_pattern1_cont1_shape1.png	1	28	0	356.317926082496	356.417920628152	0.0999945456560454	stim00_sf1_pattern1_cont1_shape1.png	1	1	1	1	1	4	0	0	0	0	0	0	0	0	0	0	0	0	1	11
309.24658203125	0.100000117297441	633337	197	1	stim01_sf1_pattern1_cont1_shape2.png	1	29	0	356.817919337878	356.917919455175	0.100000117297441	stim01_sf1_pattern1_cont1_shape2.png	1	1	1	2	1	4	0	0	0	0	0	0	0	0	0	0	0	0	1	11
309.74658203125	0.0999652212262845	634361	198	10	stim10_sf2_pattern1_cont2_shape1.png	1	30	0	357.317912300015	357.417877521241	0.0999652212262845	stim10_sf2_pattern1_cont2_shape1.png	2	1	2	1	1	2	0	0	0	0	0	0	0	0	0	0	0	0	1	11
310.24658203125	0.0999960118774652	635385	199	8	stim08_sf2_pattern1_cont1_shape1.png	1	31	0	357.817869486347	357.917865498225	0.0999960118774652	stim08_sf2_pattern1_cont1_shape1.png	2	1	1	1	1	2	0	0	0	0	0	0	0	0	0	0	0	0	1	11
310.74658203125	0.100005982183575	636409	200	3	stim03_sf1_pattern1_cont2_shape2.png	1	32	0	358.317860982263	358.417866964446	0.100005982183575	stim03_sf1_pattern1_cont2_shape2.png	1	1	2	2	1	4	0	0	0	0	0	0	0	0	0	0	0	0	1	11
311.24658203125	0.0999772442428366	637433	201	15	stim15_sf2_pattern2_cont2_shape2.png	1	33	0	358.817865087683	358.917842331925	0.0999772442428366	stim15_sf2_pattern2_cont2_shape2.png	2	2	2	2	1	1	0	0	0	0	0	0	0	0	0	0	0	0	1	11
311.74658203125	0.100016832222536	638457	202	12	stim12_sf2_pattern2_cont1_shape1.png	1	34	0	359.317835176765	359.417852008987	0.100016832222536	stim12_sf2_pattern2_cont1_shape1.png	2	2	1	1	1	1	0	0	0	0	0	0	0	0	0	0	0	0	1	11
312.24658203125	0.0999687401581468	639481	203	8	stim08_sf2_pattern1_cont1_shape1.png	1	35	0	359.817851305201	359.917820045359	0.0999687401581468	stim08_sf2_pattern1_cont1_shape1.png	2	1	1	1	1	2	0	0	0	0	0	0	0	0	0	0	0	0	1	11
312.74609375	0.099988680770366	640504	204	4	stim04_sf1_pattern2_cont1_shape1.png	1	36	0	360.31782256726	360.41781124803	0.099988680770366	stim04_sf1_pattern2_cont1_shape1.png	1	2	1	1	1	3	0	0	0	0	0	0	0	0	0	0	0	0	1	11
313.24609375	0.0999649279820005	641528	205	5	stim05_sf1_pattern2_cont1_shape2.png	1	37	0	360.817826086191	360.917791014173	0.0999649279820005	stim05_sf1_pattern2_cont1_shape2.png	1	2	1	2	1	3	0	0	0	0	0	0	0	0	0	0	0	0	1	11
313.74609375	0.099989267258934	642552	206	6	stim06_sf1_pattern2_cont2_shape1.png	1	38	0	361.317819928061	361.41780919532	0.099989267258934	stim06_sf1_pattern2_cont2_shape1.png	1	2	2	1	1	3	0	0	0	0	0	0	0	0	0	0	0	0	1	11
314.24609375	0.0999960118774652	643576	207	14	stim14_sf2_pattern2_cont2_shape1.png	1	39	0	361.817805852335	361.917801864212	0.0999960118774652	stim14_sf2_pattern2_cont2_shape1.png	2	2	2	1	1	1	0	0	0	0	0	0	0	0	0	0	0	0	1	11
314.74609375	0.100027389017214	644600	208	11	stim11_sf2_pattern1_cont2_shape2.png	1	40	0	362.317777994127	362.417805383144	0.100027389017214	stim11_sf2_pattern1_cont2_shape2.png	2	1	2	2	1	2	0	0	0	0	0	0	0	0	0	0	0	0	1	11
315.24609375	0.099954371187323	645624	209	13	stim13_sf2_pattern2_cont1_shape2.png	1	41	0	362.817776527905	362.917730899092	0.099954371187323	stim13_sf2_pattern2_cont1_shape2.png	2	2	1	2	1	1	0	0	0	0	0	0	0	0	0	0	0	0	1	11
315.74609375	0.0999763645099847	646648	210	9	stim09_sf2_pattern1_cont1_shape2.png	1	42	0	363.317787377944	363.417763742454	0.0999763645099847	stim09_sf2_pattern1_cont1_shape2.png	2	1	1	2	1	2	0	0	0	0	0	0	0	0	0	0	0	0	1	11
316.24609375	0.100001876763599	647672	211	0	stim00_sf1_pattern1_cont1_shape1.png	1	43	0	363.817743977788	363.917745854552	0.100001876763599	stim00_sf1_pattern1_cont1_shape1.png	1	1	1	1	1	4	0	0	0	0	0	0	0	0	0	0	0	0	1	11
316.74609375	0.100002756496451	648696	212	10	stim10_sf2_pattern1_cont2_shape1.png	1	44	0	364.317734887215	364.417737643711	0.100002756496451	stim10_sf2_pattern1_cont2_shape1.png	2	1	2	1	1	2	0	0	0	0	0	0	0	0	0	0	0	0	1	11
317.24609375	0.0999954253888973	649720	213	2	stim02_sf1_pattern1_cont2_shape1.png	1	45	0	364.817725503397	364.917720928786	0.0999954253888973	stim02_sf1_pattern1_cont2_shape1.png	1	1	2	1	1	4	0	0	0	0	0	0	0	0	0	0	0	0	1	11
317.74609375	0.100005102450723	650744	214	1	stim01_sf1_pattern1_cont1_shape2.png	1	46	0	365.317712600649	365.417717703099	0.100005102450723	stim01_sf1_pattern1_cont1_shape2.png	1	1	1	2	1	4	0	0	0	0	0	0	0	0	0	0	0	0	1	11
318.24609375	0.100012433558277	651768	215	7	stim07_sf1_pattern2_cont2_shape2.png	1	47	0	365.817704389808	365.917716823366	0.100012433558277	stim07_sf1_pattern2_cont2_shape2.png	1	2	2	2	1	3	0	0	0	0	0	0	0	0	0	0	0	0	1	11
318.74609375	0.0999965983660331	652792	216	3	stim03_sf1_pattern1_cont2_shape2.png	1	48	0	366.317691193815	366.417687792181	0.0999965983660331	stim03_sf1_pattern1_cont2_shape2.png	1	1	2	2	1	4	0	0	0	0	0	0	0	0	0	0	0	0	1	11
319.24609375	0.100011847069709	653816	217	4	stim04_sf1_pattern2_cont1_shape1.png	1	49	0	366.817662455874	366.917674302943	0.100011847069709	stim04_sf1_pattern2_cont1_shape1.png	1	2	1	1	1	3	0	0	0	0	0	0	0	0	0	0	0	0	1	11
319.74609375	0.0999963051217492	654840	218	1	stim01_sf1_pattern1_cont1_shape2.png	1	50	0	367.317667147783	367.417663452904	0.0999963051217492	stim01_sf1_pattern1_cont1_shape2.png	1	1	1	2	1	4	0	0	0	0	0	0	0	0	0	0	0	0	1	11
320.24609375	0.099997478098885	655864	219	13	stim13_sf2_pattern2_cont1_shape2.png	1	51	0	367.817656004499	367.917653482598	0.099997478098885	stim13_sf2_pattern2_cont1_shape2.png	2	2	1	2	1	1	0	0	0	0	0	0	0	0	0	0	0	0	1	11
320.74609375	0.100020937642967	656888	220	14	stim14_sf2_pattern2_cont2_shape1.png	1	52	0	368.317641635529	368.417662573172	0.100020937642967	stim14_sf2_pattern2_cont2_shape1.png	2	2	2	1	1	1	0	0	0	0	0	0	0	0	0	0	0	0	1	11
321.24609375	0.0999942524117614	657912	221	11	stim11_sf2_pattern1_cont2_shape2.png	1	53	0	368.817631078734	368.917625331146	0.0999942524117614	stim11_sf2_pattern1_cont2_shape2.png	2	1	2	2	1	2	0	0	0	0	0	0	0	0	0	0	0	0	1	11
321.74609375	0.0999971848550558	658936	222	6	stim06_sf1_pattern2_cont2_shape1.png	1	54	0	369.317618762474	369.417615947329	0.0999971848550558	stim06_sf1_pattern2_cont2_shape1.png	1	2	2	1	1	3	0	0	0	0	0	0	0	0	0	0	0	0	1	11
322.24609375	0.0999930794346255	659960	223	0	stim00_sf1_pattern1_cont1_shape1.png	1	55	0	369.817608792167	369.917601871602	0.0999930794346255	stim00_sf1_pattern1_cont1_shape1.png	1	1	1	1	1	4	0	0	0	0	0	0	0	0	0	0	0	0	1	11
322.74609375	0.100000997030747	660984	224	8	stim08_sf2_pattern1_cont1_shape1.png	1	56	0	370.317592956976	370.417593954006	0.100000997030747	stim08_sf2_pattern1_cont1_shape1.png	2	1	1	1	1	2	0	0	0	0	0	0	0	0	0	0	0	0	1	11
323.24609375	0.100021817375819	662008	225	9	stim09_sf2_pattern1_cont1_shape2.png	1	57	0	370.817574482585	370.917596299961	0.100021817375819	stim09_sf2_pattern1_cont1_shape2.png	2	1	1	2	1	2	0	0	0	0	0	0	0	0	0	0	0	0	1	11
323.74609375	0.0998250504526368	663032	226	2	stim02_sf1_pattern1_cont2_shape1.png	1	58	0	371.317708201984	371.417533252437	0.0998250504526368	stim02_sf1_pattern1_cont2_shape1.png	1	1	2	1	1	4	0	0	0	0	0	0	0	0	0	0	0	0	1	11
324.24609375	0.100042344476606	664056	227	7	stim07_sf1_pattern2_cont2_shape2.png	1	59	0	371.81751407426	371.917556418736	0.100042344476606	stim07_sf1_pattern2_cont2_shape2.png	1	2	2	2	1	3	0	0	0	0	0	0	0	0	0	0	0	0	1	11
324.74609375	0.100017418711559	665080	228	10	stim10_sf2_pattern1_cont2_shape1.png	1	60	0	372.317502637732	372.417520056444	0.100017418711559	stim10_sf2_pattern1_cont2_shape1.png	2	1	2	1	1	2	0	0	0	0	0	0	0	0	0	0	0	0	1	11
325.24609375	0.100000703786009	666104	229	5	stim05_sf1_pattern2_cont1_shape2.png	1	61	0	372.817505276931	372.917505980717	0.100000703786009	stim05_sf1_pattern2_cont1_shape2.png	1	2	1	2	1	3	0	0	0	0	0	0	0	0	0	0	0	0	1	11
325.74609375	0.0999983578317369	667128	230	15	stim15_sf2_pattern2_cont2_shape2.png	1	62	0	373.317499705289	373.417498063121	0.0999983578317369	stim15_sf2_pattern2_cont2_shape2.png	2	2	2	2	1	1	0	0	0	0	0	0	0	0	0	0	0	0	1	11
326.24609375	0.0999951321446133	668152	231	12	stim12_sf2_pattern2_cont1_shape1.png	1	63	0	373.817487975517	373.917483107662	0.0999951321446133	stim12_sf2_pattern2_cont1_shape1.png	2	2	1	1	1	1	0	0	0	0	0	0	0	0	0	0	0	0	1	11
326.74609375	0.100016245733968	669176	232	3	stim03_sf1_pattern1_cont2_shape2.png	1	64	0	374.317473899791	374.417490145525	0.100016245733968	stim03_sf1_pattern1_cont2_shape2.png	1	1	2	2	1	4	0	0	0	0	0	0	0	0	0	0	0	0	1	11
327.24609375	0.100016538978252	670200	233	2	stim02_sf1_pattern1_cont2_shape1.png	1	65	0	374.81746627544	374.917482814418	0.100016538978252	stim02_sf1_pattern1_cont2_shape1.png	1	1	2	1	1	4	0	0	0	0	0	0	0	0	0	0	0	0	1	11
327.74609375	0.10002005790966	671224	234	4	stim04_sf1_pattern2_cont1_shape1.png	1	66	0	375.317453665935	375.417473723845	0.10002005790966	stim04_sf1_pattern2_cont1_shape1.png	1	2	1	1	1	3	0	0	0	0	0	0	0	0	0	0	0	0	1	11
328.24609375	0.10002562955151	672248	235	7	stim07_sf1_pattern2_cont2_shape2.png	1	67	0	375.817446041583	375.917471671135	0.10002562955151	stim07_sf1_pattern2_cont2_shape2.png	1	2	2	2	1	3	0	0	0	0	0	0	0	0	0	0	0	0	1	11
328.74609375	0.100001876763599	673272	236	0	stim00_sf1_pattern1_cont1_shape1.png	1	68	0	376.317433138834	376.417435015598	0.100001876763599	stim00_sf1_pattern1_cont1_shape1.png	1	1	1	1	1	4	0	0	0	0	0	0	0	0	0	0	0	0	1	11
329.24609375	0.0999517319887673	674296	237	12	stim12_sf2_pattern2_cont1_shape1.png	1	69	0	376.817461876775	376.917413608764	0.0999517319887673	stim12_sf2_pattern2_cont1_shape1.png	2	2	1	1	1	1	0	0	0	0	0	0	0	0	0	0	0	0	1	11
329.74609375	0.100001290275031	675320	238	11	stim11_sf2_pattern1_cont2_shape2.png	1	70	0	377.317434311811	377.417435602086	0.100001290275031	stim11_sf2_pattern1_cont2_shape2.png	2	1	2	2	1	2	0	0	0	0	0	0	0	0	0	0	0	0	1	11
330.24560546875	0.0999558374087428	676343	239	9	stim09_sf2_pattern1_cont1_shape2.png	1	71	0	377.817432552346	377.917388389754	0.0999558374087428	stim09_sf2_pattern1_cont1_shape2.png	2	1	1	2	1	2	0	0	0	0	0	0	0	0	0	0	0	0	1	11
330.74560546875	0.100004222717871	677367	240	6	stim06_sf1_pattern2_cont2_shape1.png	1	72	0	378.317403227916	378.417407450634	0.100004222717871	stim06_sf1_pattern2_cont2_shape1.png	1	2	2	1	1	3	0	0	0	0	0	0	0	0	0	0	0	0	1	11
331.24560546875	0.10001859168824	678391	241	5	stim05_sf1_pattern2_cont1_shape2.png	1	73	0	378.817369211577	378.917387803266	0.10001859168824	stim05_sf1_pattern2_cont1_shape2.png	1	2	1	2	1	3	0	0	0	0	0	0	0	0	0	0	0	0	1	11
331.74560546875	0.0999963051217492	679415	242	14	stim14_sf2_pattern2_cont2_shape1.png	1	74	0	379.317378008906	379.417374314028	0.0999963051217492	stim14_sf2_pattern2_cont2_shape1.png	2	2	2	1	1	1	0	0	0	0	0	0	0	0	0	0	0	0	1	11
332.24560546875	0.09999601187792	680439	243	8	stim08_sf2_pattern1_cont1_shape1.png	1	75	0	379.817366865623	379.917362877501	0.09999601187792	stim08_sf2_pattern1_cont1_shape1.png	2	1	1	1	1	2	0	0	0	0	0	0	0	0	0	0	0	0	1	11
332.74560546875	0.0999930794346255	681463	244	15	stim15_sf2_pattern2_cont2_shape2.png	1	76	0	380.317357481806	380.41735056124	0.0999930794346255	stim15_sf2_pattern2_cont2_shape2.png	2	2	2	2	1	1	0	0	0	0	0	0	0	0	0	0	0	0	1	11
333.24560546875	0.099991026724183	682487	245	1	stim01_sf1_pattern1_cont1_shape2.png	1	77	0	380.817347218255	380.917338244979	0.099991026724183	stim01_sf1_pattern1_cont1_shape2.png	1	1	1	2	1	4	0	0	0	0	0	0	0	0	0	0	0	0	1	11
333.74560546875	0.100051728293693	683511	246	13	stim13_sf2_pattern2_cont1_shape2.png	1	78	0	381.317295900503	381.417347628797	0.100051728293693	stim13_sf2_pattern2_cont1_shape2.png	2	2	1	2	1	1	0	0	0	0	0	0	0	0	0	0	0	0	1	11
334.24560546875	0.09997636450953	684535	247	10	stim10_sf2_pattern1_cont2_shape1.png	1	79	0	381.817319360047	381.917295724556	0.09997636450953	stim10_sf2_pattern1_cont2_shape1.png	2	1	2	1	1	2	0	0	0	0	0	0	0	0	0	0	0	0	1	11
334.74560546875	0.0999986510760209	685559	248	15	stim15_sf2_pattern2_cont2_shape2.png	1	80	0	382.317307043787	382.417305694863	0.0999986510760209	stim15_sf2_pattern2_cont2_shape2.png	2	2	2	2	1	1	0	0	0	0	0	0	0	0	0	0	0	0	1	11
335.24560546875	0.0999942524117614	686583	249	6	stim06_sf1_pattern2_cont2_shape1.png	1	81	0	382.817297366725	382.917291619136	0.0999942524117614	stim06_sf1_pattern2_cont2_shape1.png	1	2	2	1	1	3	0	0	0	0	0	0	0	0	0	0	0	0	1	11
335.74560546875	0.100018298443956	687607	250	14	stim14_sf2_pattern2_cont2_shape1.png	1	82	0	383.317261297676	383.41727959612	0.100018298443956	stim14_sf2_pattern2_cont2_shape1.png	2	2	2	1	1	1	0	0	0	0	0	0	0	0	0	0	0	0	1	11
336.24560546875	0.0999787104642564	688631	251	13	stim13_sf2_pattern2_cont1_shape2.png	1	83	0	383.81729091535	383.917269625814	0.0999787104642564	stim13_sf2_pattern2_cont1_shape2.png	2	2	1	2	1	1	0	0	0	0	0	0	0	0	0	0	0	0	1	11
336.74560546875	0.100007741649733	689655	252	0	stim00_sf1_pattern1_cont1_shape1.png	1	84	0	384.31724722195	384.4172549636	0.100007741649733	stim00_sf1_pattern1_cont1_shape1.png	1	1	1	1	1	4	0	0	0	0	0	0	0	0	0	0	0	0	1	11
337.24560546875	0.099969033401976	690679	253	8	stim08_sf2_pattern1_cont1_shape1.png	1	85	0	384.817251620615	384.917220654017	0.099969033401976	stim08_sf2_pattern1_cont1_shape1.png	2	1	1	1	1	2	0	0	0	0	0	0	0	0	0	0	0	0	1	11
337.74560546875	0.0999954253888973	691703	254	3	stim03_sf1_pattern1_cont2_shape2.png	1	86	0	385.317237251644	385.417232677033	0.0999954253888973	stim03_sf1_pattern1_cont2_shape2.png	1	1	2	2	1	4	0	0	0	0	0	0	0	0	0	0	0	0	1	11
338.24560546875	0.100003049740735	692727	255	4	stim04_sf1_pattern2_cont1_shape1.png	1	87	0	385.817202942061	385.917205991802	0.100003049740735	stim04_sf1_pattern2_cont1_shape1.png	1	2	1	1	1	3	0	0	0	0	0	0	0	0	0	0	0	0	1	11
338.74560546875	0.0999921997017736	693751	256	1	stim01_sf1_pattern1_cont1_shape2.png	1	88	0	386.317212912367	386.417205112069	0.0999921997017736	stim01_sf1_pattern1_cont1_shape2.png	1	1	1	2	1	4	0	0	0	0	0	0	0	0	0	0	0	0	1	11
339.24560546875	0.100039998521879	694775	257	5	stim05_sf1_pattern2_cont1_shape2.png	1	89	0	386.817178016296	386.917218014818	0.100039998521879	stim05_sf1_pattern2_cont1_shape2.png	1	2	1	2	1	3	0	0	0	0	0	0	0	0	0	0	0	0	1	11
339.74560546875	0.0999570103858787	695799	258	9	stim09_sf2_pattern1_cont1_shape2.png	1	90	0	387.31717625683	387.417133267216	0.0999570103858787	stim09_sf2_pattern1_cont1_shape2.png	2	1	1	2	1	2	0	0	0	0	0	0	0	0	0	0	0	0	1	11
340.24560546875	0.0999784172199725	696823	259	7	stim07_sf1_pattern2_cont2_shape2.png	1	91	0	387.817163060837	387.917141478057	0.0999784172199725	stim07_sf1_pattern2_cont2_shape2.png	1	2	2	2	1	3	0	0	0	0	0	0	0	0	0	0	0	0	1	11
340.74560546875	0.0999139034747714	697847	260	12	stim12_sf2_pattern2_cont1_shape1.png	1	92	0	388.317153090531	388.417066994005	0.0999139034747714	stim12_sf2_pattern2_cont1_shape1.png	2	2	1	1	1	1	0	0	0	0	0	0	0	0	0	0	0	0	1	11
341.24560546875	0.100011260581141	698871	261	2	stim02_sf1_pattern1_cont2_shape1.png	1	93	0	388.817137548583	388.917148809164	0.100011260581141	stim02_sf1_pattern1_cont2_shape1.png	1	1	2	1	1	4	0	0	0	0	0	0	0	0	0	0	0	0	1	11
341.74560546875	0.0999965983660331	699895	262	10	stim10_sf2_pattern1_cont2_shape1.png	1	94	0	389.317116728238	389.417113326604	0.0999965983660331	stim10_sf2_pattern1_cont2_shape1.png	2	1	2	1	1	2	0	0	0	0	0	0	0	0	0	0	0	0	1	11
342.24560546875	0.0999945456560454	700919	263	11	stim11_sf2_pattern1_cont2_shape2.png	1	95	0	389.817106757932	389.917101303588	0.0999945456560454	stim11_sf2_pattern1_cont2_shape2.png	2	1	2	2	1	2	0	0	0	0	0	0	0	0	0	0	0	0	1	11
342.74560546875	0.100016538978252	701943	264	3	stim03_sf1_pattern1_cont2_shape2.png	1	96	0	390.31709913358	390.417115672558	0.100016538978252	stim03_sf1_pattern1_cont2_shape2.png	1	1	2	2	1	4	0	0	0	0	0	0	0	0	0	0	0	0	1	11
343.24560546875	0.0999722590895544	702967	265	6	stim06_sf1_pattern2_cont2_shape1.png	1	97	0	390.81710939713	390.91708165622	0.0999722590895544	stim06_sf1_pattern2_cont2_shape1.png	1	2	2	1	1	3	0	0	0	0	0	0	0	0	0	0	0	0	1	11
343.74560546875	0.0999734320666903	703991	266	0	stim00_sf1_pattern1_cont1_shape1.png	1	98	0	391.317096494382	391.417069926448	0.0999734320666903	stim00_sf1_pattern1_cont1_shape1.png	1	1	1	1	1	4	0	0	0	0	0	0	0	0	0	0	0	0	1	11
344.24560546875	0.0999787104642564	705015	267	12	stim12_sf2_pattern2_cont1_shape1.png	1	99	0	391.817086524075	391.91706523454	0.0999787104642564	stim12_sf2_pattern2_cont1_shape1.png	2	2	1	1	1	1	0	0	0	0	0	0	0	0	0	0	0	0	1	11
344.74560546875	0.100017418711104	706039	268	9	stim09_sf2_pattern1_cont1_shape2.png	1	100	0	392.317076553769	392.41709397248	0.100017418711104	stim09_sf2_pattern1_cont1_shape2.png	2	1	1	2	1	2	0	0	0	0	0	0	0	0	0	0	0	0	1	11
345.24560546875	0.0999919064570349	707063	269	4	stim04_sf1_pattern2_cont1_shape1.png	1	101	0	392.817038725255	392.917030631712	0.0999919064570349	stim04_sf1_pattern2_cont1_shape1.png	1	2	1	1	1	3	0	0	0	0	0	0	0	0	0	0	0	0	1	11
345.74560546875	0.0999971848546011	708087	270	7	stim07_sf1_pattern2_cont2_shape2.png	1	102	0	393.317044003652	393.417041188507	0.0999971848546011	stim07_sf1_pattern2_cont2_shape2.png	1	2	2	2	1	3	0	0	0	0	0	0	0	0	0	0	0	0	1	11
346.24560546875	0.0999810564185282	709111	271	10	stim10_sf2_pattern1_cont2_shape1.png	1	103	0	393.817033153613	393.917014210032	0.0999810564185282	stim10_sf2_pattern1_cont2_shape1.png	2	1	2	1	1	2	0	0	0	0	0	0	0	0	0	0	0	0	1	11
346.74560546875	0.0999971848546011	710135	272	2	stim02_sf1_pattern1_cont2_shape1.png	1	104	0	394.317022303575	394.417019488429	0.0999971848546011	stim02_sf1_pattern1_cont2_shape1.png	1	1	2	1	1	4	0	0	0	0	0	0	0	0	0	0	0	0	1	11
347.24560546875	0.0999883875256273	711159	273	13	stim13_sf2_pattern2_cont1_shape2.png	1	105	0	394.817017611666	394.917005999192	0.0999883875256273	stim13_sf2_pattern2_cont1_shape2.png	2	2	1	2	1	1	0	0	0	0	0	0	0	0	0	0	0	0	1	11
347.7451171875	0.0999634617605807	712182	274	1	stim01_sf1_pattern1_cont1_shape2.png	1	106	0	395.317021717086	395.416985178847	0.0999634617605807	stim01_sf1_pattern1_cont1_shape2.png	1	1	1	2	1	4	0	0	0	0	0	0	0	0	0	0	0	0	1	11
348.2451171875	0.100020937642512	713206	275	5	stim05_sf1_pattern2_cont1_shape2.png	1	107	0	395.816985354793	395.917006292436	0.100020937642512	stim05_sf1_pattern2_cont1_shape2.png	1	2	1	2	1	3	0	0	0	0	0	0	0	0	0	0	0	0	1	11
348.7451171875	0.100019178177263	714230	276	11	stim11_sf2_pattern1_cont2_shape2.png	1	108	0	396.316974504754	396.416993682931	0.100019178177263	stim11_sf2_pattern1_cont2_shape2.png	2	1	2	2	1	2	0	0	0	0	0	0	0	0	0	0	0	0	1	11
349.2451171875	0.099995425389352	715254	277	15	stim15_sf2_pattern2_cont2_shape2.png	1	109	0	396.816963654715	396.916959080104	0.099995425389352	stim15_sf2_pattern2_cont2_shape2.png	2	2	2	2	1	1	0	0	0	0	0	0	0	0	0	0	0	0	1	11
349.7451171875	0.0999892672584792	716278	278	8	stim08_sf2_pattern1_cont1_shape1.png	1	110	0	397.316956910096	397.416946177355	0.0999892672584792	stim08_sf2_pattern1_cont1_shape1.png	2	1	1	1	1	2	0	0	0	0	0	0	0	0	0	0	0	0	1	11
350.2451171875	0.100000410542179	717302	279	14	stim14_sf2_pattern2_cont2_shape1.png	1	111	0	397.816938435706	397.916938846248	0.100000410542179	stim14_sf2_pattern2_cont2_shape1.png	2	2	2	1	1	1	0	0	0	0	0	0	0	0	0	0	0	0	1	11
350.7451171875	0.100006275428314	718326	280	5	stim05_sf1_pattern2_cont1_shape2.png	1	112	0	398.316909111276	398.416915386704	0.100006275428314	stim05_sf1_pattern2_cont1_shape2.png	1	2	1	2	1	3	0	0	0	0	0	0	0	0	0	0	0	0	1	11
351.2451171875	0.0999860415713556	719350	281	8	stim08_sf2_pattern1_cont1_shape1.png	1	113	0	398.816918201849	398.916904243421	0.0999860415713556	stim08_sf2_pattern1_cont1_shape1.png	2	1	1	1	1	2	0	0	0	0	0	0	0	0	0	0	0	0	1	11
351.7451171875	0.100059059401246	720374	282	1	stim01_sf1_pattern1_cont1_shape2.png	1	114	0	399.316839905622	399.416898965023	0.100059059401246	stim01_sf1_pattern1_cont1_shape2.png	1	1	1	2	1	4	0	0	0	0	0	0	0	0	0	0	0	0	1	11
352.2451171875	0.0999995308088728	721398	283	7	stim07_sf1_pattern2_cont2_shape2.png	1	115	0	399.816890050397	399.916889581206	0.0999995308088728	stim07_sf1_pattern2_cont2_shape2.png	1	2	2	2	1	3	0	0	0	0	0	0	0	0	0	0	0	0	1	11
352.7451171875	0.100003636229303	722422	284	3	stim03_sf1_pattern1_cont2_shape2.png	1	116	0	400.31686981654	400.41687345277	0.100003636229303	stim03_sf1_pattern1_cont2_shape2.png	1	1	2	2	1	4	0	0	0	0	0	0	0	0	0	0	0	0	1	11
353.2451171875	0.0999963051222039	723446	285	15	stim15_sf2_pattern2_cont2_shape2.png	1	117	0	400.816867177341	400.916863482464	0.0999963051222039	stim15_sf2_pattern2_cont2_shape2.png	2	2	2	2	1	1	0	0	0	0	0	0	0	0	0	0	0	0	1	11
353.7451171875	0.0999681536695789	724470	286	0	stim00_sf1_pattern1_cont1_shape1.png	1	118	0	401.316878613869	401.416846767539	0.0999681536695789	stim00_sf1_pattern1_cont1_shape1.png	1	1	1	1	1	4	0	0	0	0	0	0	0	0	0	0	0	0	1	11
354.2451171875	0.100005395695007	725494	287	12	stim12_sf2_pattern2_cont1_shape1.png	1	119	0	401.816829348827	401.916834744522	0.100005395695007	stim12_sf2_pattern2_cont1_shape1.png	2	2	1	1	1	1	0	0	0	0	0	0	0	0	0	0	0	0	1	11
354.7451171875	0.100016538978252	726518	288	13	stim13_sf2_pattern2_cont1_shape2.png	1	120	0	402.316827882606	402.416844421584	0.100016538978252	stim13_sf2_pattern2_cont1_shape2.png	2	2	1	2	1	1	0	0	0	0	0	0	0	0	0	0	0	0	1	11
355.2451171875	0.0999487995459276	727542	289	4	stim04_sf1_pattern2_cont1_shape1.png	1	121	0	402.816854861081	402.916803660627	0.0999487995459276	stim04_sf1_pattern2_cont1_shape1.png	1	2	1	1	1	3	0	0	0	0	0	0	0	0	0	0	0	0	1	11
355.7451171875	0.099982815884232	728566	290	11	stim11_sf2_pattern1_cont2_shape2.png	1	122	0	403.316783895961	403.416766711845	0.099982815884232	stim11_sf2_pattern1_cont2_shape2.png	2	1	2	2	1	2	0	0	0	0	0	0	0	0	0	0	0	0	1	11
356.2451171875	0.0999743117995422	729590	291	10	stim10_sf2_pattern1_cont2_shape1.png	1	123	0	403.816788294626	403.916762606425	0.0999743117995422	stim10_sf2_pattern1_cont2_shape1.png	2	1	2	1	1	2	0	0	0	0	0	0	0	0	0	0	0	0	1	11
356.7451171875	0.0999936659231935	730614	292	2	stim02_sf1_pattern1_cont2_shape1.png	1	124	0	404.316758676952	404.416752342875	0.0999936659231935	stim02_sf1_pattern1_cont2_shape1.png	1	1	2	1	1	4	0	0	0	0	0	0	0	0	0	0	0	0	1	11
357.2451171875	0.100001290274577	731638	293	9	stim09_sf2_pattern1_cont1_shape2.png	1	125	0	404.816733457943	404.916734748217	0.100001290274577	stim09_sf2_pattern1_cont1_shape2.png	2	1	1	2	1	2	0	0	0	0	0	0	0	0	0	0	0	0	1	11
357.7451171875	0.100007448405449	732662	294	14	stim14_sf2_pattern2_cont2_shape1.png	1	126	0	405.316739322828	405.416746771234	0.100007448405449	stim14_sf2_pattern2_cont2_shape1.png	2	2	2	1	1	1	0	0	0	0	0	0	0	0	0	0	0	0	1	11
358.2451171875	0.0999754847766781	733686	295	6	stim06_sf1_pattern2_cont2_shape1.png	1	127	0	405.816756624242	405.916732109019	0.0999754847766781	stim06_sf1_pattern2_cont2_shape1.png	1	2	2	1	1	3	0	0	0	0	0	0	0	0	0	0	0	0	1	11
358.7451171875	0.0999883875256273	734710	296	12	stim12_sf2_pattern2_cont1_shape1.png	1	128	0	406.316736097141	406.416724484667	0.0999883875256273	stim12_sf2_pattern2_cont1_shape1.png	2	2	1	1	1	1	0	0	0	0	0	0	0	0	0	0	0	0	1	11
359.2451171875	0.0999696198909987	735734	297	3	stim03_sf1_pattern1_cont2_shape2.png	1	129	0	406.816744601226	406.916714221117	0.0999696198909987	stim03_sf1_pattern1_cont2_shape2.png	1	1	2	2	1	4	0	0	0	0	0	0	0	0	0	0	0	0	1	11
359.7451171875	0.0999784172199725	736758	298	2	stim02_sf1_pattern1_cont2_shape1.png	1	130	0	407.31671967546	407.41669809268	0.0999784172199725	stim02_sf1_pattern1_cont2_shape1.png	1	1	2	1	1	4	0	0	0	0	0	0	0	0	0	0	0	0	1	11
360.2451171875	0.0999963051217492	737782	299	13	stim13_sf2_pattern2_cont1_shape2.png	1	131	0	407.816709998399	407.916706303521	0.0999963051217492	stim13_sf2_pattern2_cont1_shape2.png	2	2	1	2	1	1	0	0	0	0	0	0	0	0	0	0	0	0	1	11
360.7451171875	0.099991026724183	738806	300	15	stim15_sf2_pattern2_cont2_shape2.png	1	132	0	408.31669093752	408.416681964244	0.099991026724183	stim15_sf2_pattern2_cont2_shape2.png	2	2	2	2	1	1	0	0	0	0	0	0	0	0	0	0	0	0	1	11
361.2451171875	0.0999919064574897	739830	301	6	stim06_sf1_pattern2_cont2_shape1.png	1	133	0	408.816674809083	408.91666671554	0.0999919064574897	stim06_sf1_pattern2_cont2_shape1.png	1	2	2	1	1	3	0	0	0	0	0	0	0	0	0	0	0	0	1	11
361.7451171875	0.0999948389003293	740854	302	4	stim04_sf1_pattern2_cont1_shape1.png	1	134	1	409.316665132021	409.416659970922	0.0999948389003293	stim04_sf1_pattern2_cont1_shape1.png	1	2	1	1	1	3	0	0	0	0	0	0	0	0	0	0	0	0	1	11
362.2451171875	0.0999948389003293	741878	303	4	stim04_sf1_pattern2_cont1_shape1.png	1	135	1	409.816652522517	409.916647361417	0.0999948389003293	stim04_sf1_pattern2_cont1_shape1.png	1	2	1	1	1	3	0	0	0	0	0	0	0	0	0	0	0	0	1	11
362.7451171875	0.0999954253888973	742902	304	7	stim07_sf1_pattern2_cont2_shape2.png	1	136	2	410.316640206256	410.416635631645	0.0999954253888973	stim07_sf1_pattern2_cont2_shape2.png	1	2	2	2	1	3	0	0	0	0	0	0	0	0	0	0	0	0	1	11
363.2451171875	0.0999960118774652	743926	305	2	stim02_sf1_pattern1_cont2_shape1.png	1	137	2	410.81662818324	410.916624195117	0.0999960118774652	stim02_sf1_pattern1_cont2_shape1.png	1	1	2	1	1	4	0	0	0	0	0	0	0	0	0	0	0	0	1	11
363.7451171875	0.0999983578317369	744950	306	11	stim11_sf2_pattern1_cont2_shape2.png	1	138	0	411.316616160224	411.416614518056	0.0999983578317369	stim11_sf2_pattern1_cont2_shape2.png	2	1	2	2	1	2	0	0	0	0	0	0	0	0	0	0	0	0	1	11
364.2451171875	0.099997478098885	745974	307	14	stim14_sf2_pattern2_cont2_shape1.png	1	139	0	411.816604137208	411.916601615307	0.099997478098885	stim14_sf2_pattern2_cont2_shape1.png	2	2	2	1	1	1	0	0	0	0	0	0	0	0	0	0	0	0	1	11
364.7451171875	0.0999992375650436	746998	308	7	stim07_sf1_pattern2_cont2_shape2.png	1	140	0	412.316592407436	412.416591645001	0.0999992375650436	stim07_sf1_pattern2_cont2_shape2.png	1	2	2	2	1	3	0	0	0	0	0	0	0	0	0	0	0	0	1	11
365.24462890625	0.0999960118774652	748021	309	4	stim04_sf1_pattern2_cont1_shape1.png	1	141	0	412.816579504687	412.916575516564	0.0999960118774652	stim04_sf1_pattern2_cont1_shape1.png	1	2	1	1	1	3	0	0	0	0	0	0	0	0	0	0	0	0	1	11
365.74462890625	0.0999963051217492	749045	310	9	stim09_sf2_pattern1_cont1_shape2.png	1	142	0	413.316567481671	413.416563786792	0.0999963051217492	stim09_sf2_pattern1_cont1_shape2.png	2	1	1	2	1	2	0	0	0	0	0	0	0	0	0	0	0	0	1	11
366.24462890625	0.0999968916103171	750069	311	0	stim00_sf1_pattern1_cont1_shape1.png	1	143	0	413.816556631632	413.916553523242	0.0999968916103171	stim00_sf1_pattern1_cont1_shape1.png	1	1	1	1	1	4	0	0	0	0	0	0	0	0	0	0	0	0	1	11
366.74462890625	0.0999957186331812	751093	312	5	stim05_sf1_pattern2_cont1_shape2.png	1	144	0	414.316544608615	414.416540327249	0.0999957186331812	stim05_sf1_pattern2_cont1_shape2.png	1	2	1	2	1	3	0	0	0	0	0	0	0	0	0	0	0	0	1	11
367.24462890625	0.0999989443207596	752117	313	8	stim08_sf2_pattern1_cont1_shape1.png	1	145	0	414.816514404453	414.916513348774	0.0999989443207596	stim08_sf2_pattern1_cont1_shape1.png	2	1	1	1	1	2	0	0	0	0	0	0	0	0	0	0	0	0	1	11
367.74462890625	0.100020644398228	753141	314	10	stim10_sf2_pattern1_cont2_shape1.png	1	146	0	415.316476869183	415.416497513581	0.100020644398228	stim10_sf2_pattern1_cont2_shape1.png	2	1	2	1	1	2	0	0	0	0	0	0	0	0	0	0	0	0	1	11
368.24462890625	0.0999989443207596	754165	315	1	stim01_sf1_pattern1_cont1_shape2.png	1	147	0	415.816508246322	415.916507190643	0.0999989443207596	stim01_sf1_pattern1_cont1_shape2.png	1	1	1	2	1	4	0	0	0	0	0	0	0	0	0	0	0	0	1	11
368.74462890625	0.100001876763599	755189	316	0	stim00_sf1_pattern1_cont1_shape1.png	1	148	0	416.316497396283	416.416499273047	0.100001876763599	stim00_sf1_pattern1_cont1_shape1.png	1	1	1	1	1	4	0	0	0	0	0	0	0	0	0	0	0	0	1	11
369.24462890625	0.0999945456560454	756213	317	14	stim14_sf2_pattern2_cont2_shape1.png	1	149	0	416.816485959756	416.916480505412	0.0999945456560454	stim14_sf2_pattern2_cont2_shape1.png	2	2	2	1	1	1	0	0	0	0	0	0	0	0	0	0	0	0	1	11
369.74462890625	0.099997771343169	757237	318	13	stim13_sf2_pattern2_cont1_shape2.png	1	150	0	417.316471297541	417.416469068884	0.099997771343169	stim13_sf2_pattern2_cont1_shape2.png	2	2	1	2	1	1	0	0	0	0	0	0	0	0	0	0	0	0	1	11
370.24462890625	0.100001876763599	758261	319	12	stim12_sf2_pattern2_cont1_shape1.png	1	151	0	417.816459274525	417.916461151289	0.100001876763599	stim12_sf2_pattern2_cont1_shape1.png	2	2	1	1	1	1	0	0	0	0	0	0	0	0	0	0	0	0	1	11
370.74462890625	0.0999878010370594	759285	320	7	stim07_sf1_pattern2_cont2_shape2.png	1	152	0	418.316460740747	418.416448541784	0.0999878010370594	stim07_sf1_pattern2_cont2_shape2.png	1	2	2	2	1	3	0	0	0	0	0	0	0	0	0	0	0	0	1	11
371.24462890625	0.0999948389003293	760309	321	6	stim06_sf1_pattern2_cont2_shape1.png	1	153	0	418.816413821659	418.91640866056	0.0999948389003293	stim06_sf1_pattern2_cont2_shape1.png	1	2	2	1	1	3	0	0	0	0	0	0	0	0	0	0	0	0	1	11
371.74462890625	0.100007448405449	761333	322	8	stim08_sf2_pattern1_cont1_shape1.png	1	154	0	419.316402091887	419.416409540293	0.100007448405449	stim08_sf2_pattern1_cont1_shape1.png	2	1	1	1	1	2	0	0	0	0	0	0	0	0	0	0	0	0	1	11
372.24462890625	0.100031787681928	762357	323	10	stim10_sf2_pattern1_cont2_shape1.png	1	155	0	419.816388016161	419.916419803843	0.100031787681928	stim10_sf2_pattern1_cont2_shape1.png	2	1	2	1	1	2	0	0	0	0	0	0	0	0	0	0	0	0	1	11
372.74462890625	0.0999485063011889	763381	324	3	stim03_sf1_pattern1_cont2_shape2.png	1	156	0	420.31640297162	420.416351477922	0.0999485063011889	stim03_sf1_pattern1_cont2_shape2.png	1	1	2	2	1	4	0	0	0	0	0	0	0	0	0	0	0	0	1	11
373.24462890625	0.0999722590895544	764405	325	15	stim15_sf2_pattern2_cont2_shape2.png	1	157	0	420.816394174291	420.916366433381	0.0999722590895544	stim15_sf2_pattern2_cont2_shape2.png	2	2	2	2	1	1	0	0	0	0	0	0	0	0	0	0	0	0	1	11
373.74462890625	0.099995718633636	765429	326	5	stim05_sf1_pattern2_cont1_shape2.png	1	158	0	421.31635927822	421.416354996853	0.099995718633636	stim05_sf1_pattern2_cont1_shape2.png	1	2	1	2	1	3	0	0	0	0	0	0	0	0	0	0	0	0	1	11
374.24462890625	0.0999924929460576	766453	327	1	stim01_sf1_pattern1_cont1_shape2.png	1	159	0	421.816356345777	421.916348838723	0.0999924929460576	stim01_sf1_pattern1_cont1_shape2.png	1	1	1	2	1	4	0	0	0	0	0	0	0	0	0	0	0	0	1	11
374.74462890625	0.100021230886796	767477	328	4	stim04_sf1_pattern2_cont1_shape1.png	1	160	0	422.316340803829	422.416362034716	0.100021230886796	stim04_sf1_pattern2_cont1_shape1.png	1	2	1	1	1	3	0	0	0	0	0	0	0	0	0	0	0	0	1	11
375.24462890625	0.0999936659231935	768501	329	11	stim11_sf2_pattern1_cont2_shape2.png	1	161	0	422.816343443028	422.916337108951	0.0999936659231935	stim11_sf2_pattern1_cont2_shape2.png	2	1	2	2	1	2	0	0	0	0	0	0	0	0	0	0	0	0	1	11
375.74462890625	0.0999813496628121	769525	330	9	stim09_sf2_pattern1_cont1_shape2.png	1	162	0	423.316344029517	423.416325379179	0.0999813496628121	stim09_sf2_pattern1_cont1_shape2.png	2	1	1	2	1	2	0	0	0	0	0	0	0	0	0	0	0	0	1	11
376.24462890625	0.100008914626414	770549	331	2	stim02_sf1_pattern1_cont2_shape1.png	1	163	0	423.816299456384	423.91630837101	0.100008914626414	stim02_sf1_pattern1_cont2_shape1.png	1	1	2	1	1	4	0	0	0	0	0	0	0	0	0	0	0	0	1	11
429.259765625	0.0999948389003293	879124	332	12	stim12_sf2_pattern2_cont1_shape1.png	2	0	0	476.831702406304	476.931697245204	0.0999948389003293	stim12_sf2_pattern2_cont1_shape1.png	2	2	1	1	1	1	0	0	0	0	0	0	0	0	0	0	0	0	1	11
429.759765625	0.0999804699299602	880148	333	2	stim02_sf1_pattern1_cont2_shape1.png	2	1	0	477.331702992793	477.431683462723	0.0999804699299602	stim02_sf1_pattern1_cont2_shape1.png	1	1	2	1	1	4	0	0	0	0	0	0	0	0	0	0	0	0	1	11
430.26806640625	0.100009207870698	881189	334	1	stim01_sf1_pattern1_cont1_shape2.png	2	2	0	477.839993595544	477.940002803415	0.100009207870698	stim01_sf1_pattern1_cont1_shape2.png	1	1	1	2	1	4	0	0	0	0	0	0	0	0	0	0	0	0	1	11
430.76806640625	0.0999983578321917	882213	335	7	stim07_sf1_pattern2_cont2_shape2.png	2	3	0	478.340008257759	478.440006615591	0.0999983578321917	stim07_sf1_pattern2_cont2_shape2.png	1	2	2	2	1	3	0	0	0	0	0	0	0	0	0	0	0	0	1	11
431.26806640625	0.100013899779697	883237	336	6	stim06_sf1_pattern2_cont2_shape1.png	2	4	0	478.839986264437	478.940000164217	0.100013899779697	stim06_sf1_pattern2_cont2_shape1.png	1	2	2	1	1	3	0	0	0	0	0	0	0	0	0	0	0	0	1	11
431.76806640625	0.0999989443207596	884261	337	14	stim14_sf2_pattern2_cont2_shape1.png	2	5	0	479.339987730658	479.439986674979	0.0999989443207596	stim14_sf2_pattern2_cont2_shape1.png	2	2	2	1	1	1	0	0	0	0	0	0	0	0	0	0	0	0	1	11
432.26806640625	0.100014486268265	885285	338	8	stim08_sf2_pattern1_cont1_shape1.png	2	6	0	479.839958112984	479.939972599253	0.100014486268265	stim08_sf2_pattern1_cont1_shape1.png	2	1	1	1	1	2	0	0	0	0	0	0	0	0	0	0	0	0	1	11
432.76806640625	0.100019764665376	886309	339	3	stim03_sf1_pattern1_cont2_shape2.png	2	7	0	480.339917938516	480.439937703181	0.100019764665376	stim03_sf1_pattern1_cont2_shape2.png	1	1	2	2	1	4	0	0	0	0	0	0	0	0	0	0	0	0	1	11
433.26806640625	0.100015952489684	887333	340	15	stim15_sf2_pattern2_cont2_shape2.png	2	8	0	480.839908847943	480.939924800432	0.100015952489684	stim15_sf2_pattern2_cont2_shape2.png	2	2	2	2	1	1	0	0	0	0	0	0	0	0	0	0	0	0	1	11
433.76806640625	0.0999939591674774	888357	341	5	stim05_sf1_pattern2_cont1_shape2.png	2	9	0	481.339919111493	481.439913070661	0.0999939591674774	stim05_sf1_pattern2_cont1_shape2.png	1	2	1	2	1	3	0	0	0	0	0	0	0	0	0	0	0	0	1	11
434.26806640625	0.0999784172195177	889381	342	13	stim13_sf2_pattern2_cont1_shape2.png	2	10	0	481.839929375044	481.939907792263	0.0999784172195177	stim13_sf2_pattern2_cont1_shape2.png	2	2	1	2	1	1	0	0	0	0	0	0	0	0	0	0	0	0	1	11
434.76806640625	0.100002170007883	890405	343	11	stim11_sf2_pattern1_cont2_shape2.png	2	11	0	482.339890666796	482.439892836804	0.100002170007883	stim11_sf2_pattern1_cont2_shape2.png	2	1	2	2	1	2	0	0	0	0	0	0	0	0	0	0	0	0	1	11
435.26806640625	0.099997771343169	891429	344	0	stim00_sf1_pattern1_cont1_shape1.png	2	12	0	482.839886561376	482.939884332719	0.099997771343169	stim00_sf1_pattern1_cont1_shape1.png	1	1	1	1	1	4	0	0	0	0	0	0	0	0	0	0	0	0	1	11
435.76806640625	0.0999394157279312	892453	345	4	stim04_sf1_pattern2_cont1_shape1.png	2	13	0	483.339875124849	483.439814540577	0.0999394157279312	stim04_sf1_pattern2_cont1_shape1.png	1	2	1	1	1	3	0	0	0	0	0	0	0	0	0	0	0	0	1	11
436.26806640625	0.0999816429070961	893477	346	10	stim10_sf2_pattern1_cont2_shape1.png	2	14	0	483.839902396568	483.939884039475	0.0999816429070961	stim10_sf2_pattern1_cont2_shape1.png	2	1	2	1	1	2	0	0	0	0	0	0	0	0	0	0	0	0	1	11
436.76806640625	0.0999965983660331	894501	347	9	stim09_sf2_pattern1_cont1_shape2.png	2	15	0	484.339879230269	484.439875828635	0.0999965983660331	stim09_sf2_pattern1_cont1_shape2.png	2	1	1	2	1	2	0	0	0	0	0	0	0	0	0	0	0	0	1	11
437.26806640625	0.099997771343169	895525	348	6	stim06_sf1_pattern2_cont2_shape1.png	2	16	0	484.839858409924	484.939856181267	0.099997771343169	stim06_sf1_pattern2_cont2_shape1.png	1	2	2	1	1	3	0	0	0	0	0	0	0	0	0	0	0	0	1	11
437.76806640625	0.0999989443203049	896549	349	5	stim05_sf1_pattern2_cont1_shape2.png	2	17	0	485.339846093663	485.439845037984	0.0999989443203049	stim05_sf1_pattern2_cont1_shape2.png	1	2	1	2	1	3	0	0	0	0	0	0	0	0	0	0	0	0	1	11
438.26806640625	0.0999963051217492	897573	350	0	stim00_sf1_pattern1_cont1_shape1.png	2	18	0	485.839856357214	485.939852662335	0.0999963051217492	stim00_sf1_pattern1_cont1_shape1.png	1	1	1	1	1	4	0	0	0	0	0	0	0	0	0	0	0	0	1	11
438.767578125	0.0999971848550558	898596	351	7	stim07_sf1_pattern2_cont2_shape2.png	2	19	0	486.339820581409	486.439817766264	0.0999971848550558	stim07_sf1_pattern2_cont2_shape2.png	1	2	2	2	1	3	0	0	0	0	0	0	0	0	0	0	0	0	1	11
439.267578125	0.100022110619648	899620	352	3	stim03_sf1_pattern1_cont2_shape2.png	2	20	0	486.839802400263	486.939824510883	0.100022110619648	stim03_sf1_pattern1_cont2_shape2.png	1	1	2	2	1	4	0	0	0	0	0	0	0	0	0	0	0	0	1	11
439.767578125	0.0999980645879077	900644	353	10	stim10_sf2_pattern1_cont2_shape1.png	2	21	0	487.339795948888	487.439794013476	0.0999980645879077	stim10_sf2_pattern1_cont2_shape1.png	2	1	2	1	1	2	0	0	0	0	0	0	0	0	0	0	0	0	1	11
440.267578125	0.100034720124313	901668	354	1	stim01_sf1_pattern1_cont1_shape2.png	2	22	0	487.839746977091	487.939781697215	0.100034720124313	stim01_sf1_pattern1_cont1_shape2.png	1	1	1	2	1	4	0	0	0	0	0	0	0	0	0	0	0	0	1	11
440.767578125	0.1000156592454	902692	355	2	stim02_sf1_pattern1_cont2_shape1.png	2	23	0	488.339753135221	488.439768794467	0.1000156592454	stim02_sf1_pattern1_cont2_shape1.png	1	1	2	1	1	4	0	0	0	0	0	0	0	0	0	0	0	0	1	11
441.267578125	0.0999968916103171	903716	356	15	stim15_sf2_pattern2_cont2_shape2.png	2	24	0	488.83976193255	488.93975882416	0.0999968916103171	stim15_sf2_pattern2_cont2_shape2.png	2	2	2	2	1	1	0	0	0	0	0	0	0	0	0	0	0	0	1	11
441.767578125	0.100015366001116	904740	357	12	stim12_sf2_pattern2_cont1_shape1.png	2	25	0	489.339729382433	489.439744748434	0.100015366001116	stim12_sf2_pattern2_cont1_shape1.png	2	2	1	1	1	1	0	0	0	0	0	0	0	0	0	0	0	0	1	11
442.267578125	0.100005395695007	905764	358	11	stim11_sf2_pattern1_cont2_shape2.png	2	26	0	489.839727622968	489.939733018663	0.100005395695007	stim11_sf2_pattern1_cont2_shape2.png	2	1	2	2	1	2	0	0	0	0	0	0	0	0	0	0	0	0	1	11
442.767578125	0.0999983578317369	906788	359	4	stim04_sf1_pattern2_cont1_shape1.png	2	27	0	490.33972644999	490.439724807822	0.0999983578317369	stim04_sf1_pattern2_cont1_shape1.png	1	2	1	1	1	3	0	0	0	0	0	0	0	0	0	0	0	0	1	11
443.267578125	0.0999965983664879	907812	360	13	stim13_sf2_pattern2_cont1_shape2.png	2	28	0	490.839714426974	490.93971102534	0.0999965983664879	stim13_sf2_pattern2_cont1_shape2.png	2	2	1	2	1	1	0	0	0	0	0	0	0	0	0	0	0	0	1	11
443.767578125	0.0999954253888973	908836	361	9	stim09_sf2_pattern1_cont1_shape2.png	2	29	0	491.339701230981	491.43969665637	0.0999954253888973	stim09_sf2_pattern1_cont1_shape2.png	2	1	1	2	1	2	0	0	0	0	0	0	0	0	0	0	0	0	1	11
444.267578125	0.100013313291129	909860	362	8	stim08_sf2_pattern1_cont1_shape1.png	2	30	0	491.839689794453	491.939703107744	0.100013313291129	stim08_sf2_pattern1_cont1_shape1.png	2	1	1	1	1	2	0	0	0	0	0	0	0	0	0	0	0	0	1	11
444.767578125	0.100013020046845	910884	363	5	stim05_sf1_pattern2_cont1_shape2.png	2	31	1	492.339660470023	492.43967349007	0.100013020046845	stim05_sf1_pattern2_cont1_shape2.png	1	2	1	2	1	3	0	0	0	0	0	0	0	0	0	0	0	0	1	11
445.267578125	0.0999573036301626	911908	364	5	stim05_sf1_pattern2_cont1_shape2.png	2	32	1	492.839665748421	492.939623052051	0.0999573036301626	stim05_sf1_pattern2_cont1_shape2.png	1	2	1	2	1	3	0	0	0	0	0	0	0	0	0	0	0	0	1	11
445.767578125	0.0999986510760209	912932	365	1	stim01_sf1_pattern1_cont1_shape2.png	2	33	2	493.339652259183	493.439650910259	0.0999986510760209	stim01_sf1_pattern1_cont1_shape2.png	1	1	1	2	1	4	0	0	0	0	0	0	0	0	0	0	0	0	1	11
446.267578125	0.0999781239756885	913956	366	9	stim09_sf2_pattern1_cont1_shape2.png	2	34	2	493.839648447007	493.939626570983	0.0999781239756885	stim09_sf2_pattern1_cont1_shape2.png	2	1	1	2	1	2	0	0	0	0	0	0	0	0	0	0	0	0	1	11
446.767578125	0.0999857483270716	914980	367	14	stim14_sf2_pattern2_cont2_shape1.png	2	35	0	494.33961589689	494.439601645217	0.0999857483270716	stim14_sf2_pattern2_cont2_shape1.png	2	2	2	1	1	1	0	0	0	0	0	0	0	0	0	0	0	0	1	11
447.267578125	0.0999825226394933	916004	368	6	stim06_sf1_pattern2_cont2_shape1.png	2	36	0	494.839619709066	494.939602231706	0.0999825226394933	stim06_sf1_pattern2_cont2_shape1.png	1	2	2	1	1	3	0	0	0	0	0	0	0	0	0	0	0	0	1	11
447.767578125	0.0999963051217492	917028	369	15	stim15_sf2_pattern2_cont2_shape2.png	2	37	0	495.339583053529	495.439579358651	0.0999963051217492	stim15_sf2_pattern2_cont2_shape2.png	2	2	2	2	1	1	0	0	0	0	0	0	0	0	0	0	0	0	1	11
448.267578125	0.100006275427859	918052	370	11	stim11_sf2_pattern1_cont2_shape2.png	2	38	0	495.83957220349	495.939578478918	0.100006275427859	stim11_sf2_pattern1_cont2_shape2.png	2	1	2	2	1	2	0	0	0	0	0	0	0	0	0	0	0	0	1	11
448.767578125	0.100023283597238	919076	371	13	stim13_sf2_pattern2_cont1_shape2.png	2	39	0	496.339537307419	496.439560591016	0.100023283597238	stim13_sf2_pattern2_cont1_shape2.png	2	2	1	2	1	1	0	0	0	0	0	0	0	0	0	0	0	0	1	11
449.267578125	0.1000341336362	920100	372	9	stim09_sf2_pattern1_cont1_shape2.png	2	40	0	496.839533495243	496.939567628879	0.1000341336362	stim09_sf2_pattern1_cont1_shape2.png	2	1	1	2	1	2	0	0	0	0	0	0	0	0	0	0	0	0	1	11
449.767578125	0.0999945456560454	921124	373	12	stim12_sf2_pattern2_cont1_shape1.png	2	41	0	497.33954082635	497.439535372007	0.0999945456560454	stim12_sf2_pattern2_cont1_shape1.png	2	2	1	1	1	1	0	0	0	0	0	0	0	0	0	0	0	0	1	11
450.267578125	0.0999968916107719	922148	374	3	stim03_sf1_pattern1_cont2_shape2.png	2	42	0	497.839533495243	497.939530386854	0.0999968916107719	stim03_sf1_pattern1_cont2_shape2.png	1	1	2	2	1	4	0	0	0	0	0	0	0	0	0	0	0	0	1	11
450.767578125	0.0999977713436238	923172	375	14	stim14_sf2_pattern2_cont2_shape1.png	2	43	0	498.339521472227	498.43951924357	0.0999977713436238	stim14_sf2_pattern2_cont2_shape1.png	2	2	2	1	1	1	0	0	0	0	0	0	0	0	0	0	0	0	1	11
451.267578125	0.0999948389003293	924196	376	10	stim10_sf2_pattern1_cont2_shape1.png	2	44	0	498.839529976311	498.939524815212	0.0999948389003293	stim10_sf2_pattern1_cont2_shape1.png	2	1	2	1	1	2	0	0	0	0	0	0	0	0	0	0	0	0	1	11
451.767578125	0.100002170007429	925220	377	1	stim01_sf1_pattern1_cont1_shape2.png	2	45	0	499.339514434364	499.439516604371	0.100002170007429	stim01_sf1_pattern1_cont1_shape2.png	1	1	1	2	1	4	0	0	0	0	0	0	0	0	0	0	0	0	1	11
452.267578125	0.0999878010370594	926244	378	5	stim05_sf1_pattern2_cont1_shape2.png	2	46	0	499.839507396501	499.939495197538	0.0999878010370594	stim05_sf1_pattern2_cont1_shape2.png	1	2	1	2	1	3	0	0	0	0	0	0	0	0	0	0	0	0	1	11
452.767578125	0.100051728294147	927268	379	8	stim08_sf2_pattern1_cont1_shape1.png	2	47	0	500.339456078749	500.439507807043	0.100051728294147	stim08_sf2_pattern1_cont1_shape1.png	2	1	1	1	1	2	0	0	0	0	0	0	0	0	0	0	0	0	1	11
453.267578125	0.100031494437189	928292	380	2	stim02_sf1_pattern1_cont2_shape1.png	2	48	0	500.839454026039	500.939485520476	0.100031494437189	stim02_sf1_pattern1_cont2_shape1.png	1	1	2	1	1	4	0	0	0	0	0	0	0	0	0	0	0	0	1	11
453.767578125	0.0999942524117614	929316	381	4	stim04_sf1_pattern2_cont1_shape1.png	2	49	0	501.339465755811	501.439460008222	0.0999942524117614	stim04_sf1_pattern2_cont1_shape1.png	1	2	1	1	1	3	0	0	0	0	0	0	0	0	0	0	0	0	1	11
454.267578125	0.0999751915323941	930340	382	7	stim07_sf1_pattern2_cont2_shape2.png	2	50	0	501.839452266573	501.939427458105	0.0999751915323941	stim07_sf1_pattern2_cont2_shape2.png	1	2	2	2	1	3	0	0	0	0	0	0	0	0	0	0	0	0	1	11
454.767578125	0.0999584766072985	931364	383	0	stim00_sf1_pattern1_cont1_shape1.png	2	51	0	502.339441416534	502.439399893141	0.0999584766072985	stim00_sf1_pattern1_cont1_shape1.png	1	1	1	1	1	4	0	0	0	0	0	0	0	0	0	0	0	0	1	11
455.267578125	0.09999601187792	932388	384	3	stim03_sf1_pattern1_cont2_shape2.png	2	52	0	502.839428513785	502.939424525663	0.09999601187792	stim03_sf1_pattern1_cont2_shape2.png	1	1	2	2	1	4	0	0	0	0	0	0	0	0	0	0	0	0	1	11
455.767578125	0.100017711955843	933412	385	0	stim00_sf1_pattern1_cont1_shape1.png	2	53	0	503.339416490769	503.439434202724	0.100017711955843	stim00_sf1_pattern1_cont1_shape1.png	1	1	1	1	1	4	0	0	0	0	0	0	0	0	0	0	0	0	1	11
456.26708984375	0.100000410541725	934435	386	5	stim05_sf1_pattern2_cont1_shape2.png	2	54	0	503.839408279929	503.93940869047	0.100000410541725	stim05_sf1_pattern2_cont1_shape2.png	1	2	1	2	1	3	0	0	0	0	0	0	0	0	0	0	0	0	1	11
456.76708984375	0.0999963051217492	935459	387	12	stim12_sf2_pattern2_cont1_shape1.png	2	55	0	504.339393617714	504.439389922835	0.0999963051217492	stim12_sf2_pattern2_cont1_shape1.png	2	2	1	1	1	1	0	0	0	0	0	0	0	0	0	0	0	0	1	11
457.26708984375	0.100000997030747	936483	388	9	stim09_sf2_pattern1_cont1_shape2.png	2	56	0	504.839382181186	504.939383178217	0.100000997030747	stim09_sf2_pattern1_cont1_shape2.png	2	1	1	2	1	2	0	0	0	0	0	0	0	0	0	0	0	0	1	11
457.76708984375	0.0999948389003293	937507	389	6	stim06_sf1_pattern2_cont2_shape1.png	2	57	0	505.33936810546	505.43936294436	0.0999948389003293	stim06_sf1_pattern2_cont2_shape1.png	1	2	2	1	1	3	0	0	0	0	0	0	0	0	0	0	0	0	1	11
458.26708984375	0.100016832222536	938531	390	13	stim13_sf2_pattern2_cont1_shape2.png	2	58	0	505.8393557892	505.939372621422	0.100016832222536	stim13_sf2_pattern2_cont1_shape2.png	2	2	1	2	1	1	0	0	0	0	0	0	0	0	0	0	0	0	1	11
458.76708984375	0.100003636229303	939555	391	1	stim01_sf1_pattern1_cont1_shape2.png	2	59	0	506.33933057019	506.439334206419	0.100003636229303	stim01_sf1_pattern1_cont1_shape2.png	1	1	1	2	1	4	0	0	0	0	0	0	0	0	0	0	0	0	1	11
459.26708984375	0.0999942524117614	940579	392	8	stim08_sf2_pattern1_cont1_shape1.png	2	60	0	506.839333502633	506.939327755045	0.0999942524117614	stim08_sf2_pattern1_cont1_shape1.png	2	1	1	1	1	2	0	0	0	0	0	0	0	0	0	0	0	0	1	11
459.76708984375	0.0999948389003293	941603	393	2	stim02_sf1_pattern1_cont2_shape1.png	2	61	0	507.339322945838	507.439317784739	0.0999948389003293	stim02_sf1_pattern1_cont2_shape1.png	1	1	2	1	1	4	0	0	0	0	0	0	0	0	0	0	0	0	1	11
460.26708984375	0.0999622887834448	942627	394	15	stim15_sf2_pattern2_cont2_shape2.png	2	62	0	507.839310629578	507.939272918361	0.0999622887834448	stim15_sf2_pattern2_cont2_shape2.png	2	2	2	2	1	1	0	0	0	0	0	0	0	0	0	0	0	0	1	11
460.76708984375	0.09997636450953	943651	395	14	stim14_sf2_pattern2_cont2_shape1.png	2	63	0	508.339294501141	508.439270865651	0.09997636450953	stim14_sf2_pattern2_cont2_shape1.png	2	2	2	1	1	1	0	0	0	0	0	0	0	0	0	0	0	0	1	11
461.26708984375	0.099944987370236	944675	396	10	stim10_sf2_pattern1_cont2_shape1.png	2	64	0	508.839290688965	508.939235676336	0.099944987370236	stim10_sf2_pattern1_cont2_shape1.png	2	1	2	1	1	2	0	0	0	0	0	0	0	0	0	0	0	0	1	11
461.76708984375	0.100007448404995	945699	397	4	stim04_sf1_pattern2_cont1_shape1.png	2	65	0	509.339234679305	509.43924212771	0.100007448404995	stim04_sf1_pattern2_cont1_shape1.png	1	2	1	1	1	3	0	0	0	0	0	0	0	0	0	0	0	0	1	11
462.26708984375	0.0999945456560454	946723	398	7	stim07_sf1_pattern2_cont2_shape2.png	2	66	0	509.839217377892	509.939211923548	0.0999945456560454	stim07_sf1_pattern2_cont2_shape2.png	1	2	2	2	1	3	0	0	0	0	0	0	0	0	0	0	0	0	1	11
462.76708984375	0.100011847069709	947747	399	11	stim11_sf2_pattern1_cont2_shape2.png	2	67	0	510.33919069266	510.43920253973	0.100011847069709	stim11_sf2_pattern1_cont2_shape2.png	2	1	2	2	1	2	0	0	0	0	0	0	0	0	0	0	0	0	1	11
463.26708984375	0.0999965983664879	948771	400	6	stim06_sf1_pattern2_cont2_shape1.png	2	68	0	510.839194211592	510.939190809958	0.0999965983664879	stim06_sf1_pattern2_cont2_shape1.png	1	2	2	1	1	3	0	0	0	0	0	0	0	0	0	0	0	0	1	11
463.76708984375	0.0999954253888973	949795	401	9	stim09_sf2_pattern1_cont1_shape2.png	2	69	0	511.33918248182	511.439177907209	0.0999954253888973	stim09_sf2_pattern1_cont1_shape2.png	2	1	1	2	1	2	0	0	0	0	0	0	0	0	0	0	0	0	1	11
464.26708984375	0.0999930794346255	950819	402	4	stim04_sf1_pattern2_cont1_shape1.png	2	70	0	511.839197730524	511.939190809958	0.0999930794346255	stim04_sf1_pattern2_cont1_shape1.png	1	2	1	1	1	3	0	0	0	0	0	0	0	0	0	0	0	0	1	11
464.76708984375	0.0999971848550558	951843	403	13	stim13_sf2_pattern2_cont1_shape2.png	2	71	0	512.339182188576	512.439179373431	0.0999971848550558	stim13_sf2_pattern2_cont1_shape2.png	2	2	1	2	1	1	0	0	0	0	0	0	0	0	0	0	0	0	1	11
465.26708984375	0.100018884932524	952867	404	7	stim07_sf1_pattern2_cont2_shape2.png	2	72	0	512.839157556055	512.939176440987	0.100018884932524	stim07_sf1_pattern2_cont2_shape2.png	1	2	2	2	1	3	0	0	0	0	0	0	0	0	0	0	0	0	1	11
465.76708984375	0.099995718633636	953891	405	11	stim11_sf2_pattern1_cont2_shape2.png	2	73	0	513.339163420941	513.439159139574	0.099995718633636	stim11_sf2_pattern1_cont2_shape2.png	2	1	2	2	1	2	0	0	0	0	0	0	0	0	0	0	0	0	1	11
466.26708984375	0.0999965983660331	954915	406	14	stim14_sf2_pattern2_cont2_shape1.png	2	74	0	513.839168699338	513.939165297704	0.0999965983660331	stim14_sf2_pattern2_cont2_shape1.png	2	2	2	1	1	1	0	0	0	0	0	0	0	0	0	0	0	0	1	11
466.76708984375	0.0999402954612378	955939	407	2	stim02_sf1_pattern1_cont2_shape1.png	2	75	0	514.339177789911	514.439118085373	0.0999402954612378	stim02_sf1_pattern1_cont2_shape1.png	1	1	2	1	1	4	0	0	0	0	0	0	0	0	0	0	0	0	1	11
467.26708984375	0.0999948389003293	956963	408	3	stim03_sf1_pattern1_cont2_shape2.png	2	76	0	514.839153157391	514.939147996291	0.0999948389003293	stim03_sf1_pattern1_cont2_shape2.png	1	1	2	2	1	4	0	0	0	0	0	0	0	0	0	0	0	0	1	11
467.76708984375	0.0999939591674774	957987	409	15	stim15_sf2_pattern2_cont2_shape2.png	2	77	0	515.339135562733	515.4391295219	0.0999939591674774	stim15_sf2_pattern2_cont2_shape2.png	2	2	2	2	1	1	0	0	0	0	0	0	0	0	0	0	0	0	1	11
468.26708984375	0.0999930794346255	959011	410	0	stim00_sf1_pattern1_cont1_shape1.png	2	78	0	515.839122659984	515.939115739418	0.0999930794346255	stim00_sf1_pattern1_cont1_shape1.png	1	1	1	1	1	4	0	0	0	0	0	0	0	0	0	0	0	0	1	11
468.76708984375	0.0999766577542687	960035	411	12	stim12_sf2_pattern2_cont1_shape1.png	2	79	0	516.339128818114	516.439105475868	0.0999766577542687	stim12_sf2_pattern2_cont1_shape1.png	2	2	1	1	1	1	0	0	0	0	0	0	0	0	0	0	0	0	1	11
469.26708984375	0.0999951321446133	961059	412	8	stim08_sf2_pattern1_cont1_shape1.png	2	80	0	516.839096561241	516.939091693386	0.0999951321446133	stim08_sf2_pattern1_cont1_shape1.png	2	1	1	1	1	2	0	0	0	0	0	0	0	0	0	0	0	0	1	11
469.76708984375	0.100000703786009	962083	413	10	stim10_sf2_pattern1_cont2_shape1.png	2	81	0	517.339081605782	517.439082309568	0.100000703786009	stim10_sf2_pattern1_cont2_shape1.png	2	1	2	1	1	2	0	0	0	0	0	0	0	0	0	0	0	0	1	11
470.26708984375	0.0999772442428366	963107	414	1	stim01_sf1_pattern1_cont1_shape2.png	2	82	0	517.839053161085	517.939030405328	0.0999772442428366	stim01_sf1_pattern1_cont1_shape2.png	1	1	1	2	1	4	0	0	0	0	0	0	0	0	0	0	0	0	1	11
470.76708984375	0.0999989443203049	964131	415	5	stim05_sf1_pattern2_cont1_shape2.png	2	83	0	518.339058439483	518.439057383803	0.0999989443203049	stim05_sf1_pattern2_cont1_shape2.png	1	2	1	2	1	3	0	0	0	0	0	0	0	0	0	0	0	0	1	11
471.26708984375	0.0999968916103171	965155	416	15	stim15_sf2_pattern2_cont2_shape2.png	2	84	0	518.839048469177	518.939045360787	0.0999968916103171	stim15_sf2_pattern2_cont2_shape2.png	2	2	2	2	1	1	0	0	0	0	0	0	0	0	0	0	0	0	1	11
471.76708984375	0.0999948389003293	966179	417	0	stim00_sf1_pattern1_cont1_shape1.png	2	85	0	519.339036739405	519.439031578305	0.0999948389003293	stim00_sf1_pattern1_cont1_shape1.png	1	1	1	1	1	4	0	0	0	0	0	0	0	0	0	0	0	0	1	11
472.26708984375	0.099991319968467	967203	418	11	stim11_sf2_pattern1_cont2_shape2.png	2	86	0	519.83902823532	519.939019555289	0.099991319968467	stim11_sf2_pattern1_cont2_shape2.png	2	1	2	2	1	2	0	0	0	0	0	0	0	0	0	0	0	0	1	11
472.76708984375	0.0999965983660331	968227	419	6	stim06_sf1_pattern2_cont2_shape1.png	2	87	0	520.339011227151	520.439007825517	0.0999965983660331	stim06_sf1_pattern2_cont2_shape1.png	1	2	2	1	1	3	0	0	0	0	0	0	0	0	0	0	0	0	1	11
473.26708984375	0.0999945456560454	969251	420	12	stim12_sf2_pattern2_cont1_shape1.png	2	88	0	520.839002429822	520.938996975478	0.0999945456560454	stim12_sf2_pattern2_cont1_shape1.png	2	2	1	1	1	1	0	0	0	0	0	0	0	0	0	0	0	0	1	11
473.7666015625	0.0999951321446133	970274	421	1	stim01_sf1_pattern1_cont1_shape2.png	2	89	0	521.338990993294	521.438986125439	0.0999951321446133	stim01_sf1_pattern1_cont1_shape2.png	1	1	1	2	1	4	0	0	0	0	0	0	0	0	0	0	0	0	1	11
474.2666015625	0.100022990352954	971298	422	13	stim13_sf2_pattern2_cont1_shape2.png	2	90	0	521.838956976956	521.938979967309	0.100022990352954	stim13_sf2_pattern2_cont1_shape2.png	2	2	1	2	1	1	0	0	0	0	0	0	0	0	0	0	0	0	1	11
474.7666015625	0.0999904402360698	972322	423	4	stim04_sf1_pattern2_cont1_shape1.png	2	91	0	522.338966067529	522.438956507765	0.0999904402360698	stim04_sf1_pattern2_cont1_shape1.png	1	2	1	1	1	3	0	0	0	0	0	0	0	0	0	0	0	0	1	11
475.2666015625	0.0999939591674774	973346	424	8	stim08_sf2_pattern1_cont1_shape1.png	2	92	0	522.838953458025	522.938947417192	0.0999939591674774	stim08_sf2_pattern1_cont1_shape1.png	2	1	1	1	1	2	0	0	0	0	0	0	0	0	0	0	0	0	1	11
475.7666015625	0.0999866280599235	974370	425	9	stim09_sf2_pattern1_cont1_shape2.png	2	93	0	523.338941141764	523.438927769824	0.0999866280599235	stim09_sf2_pattern1_cont1_shape2.png	2	1	1	2	1	2	0	0	0	0	0	0	0	0	0	0	0	0	1	11
476.2666015625	0.0999784172195177	975394	426	3	stim03_sf1_pattern1_cont2_shape2.png	2	94	0	523.838931464702	523.938909881922	0.0999784172195177	stim03_sf1_pattern1_cont2_shape2.png	1	1	2	2	1	4	0	0	0	0	0	0	0	0	0	0	0	0	1	11
476.7666015625	0.100040878255186	976418	427	2	stim02_sf1_pattern1_cont2_shape1.png	2	95	0	524.338876628019	524.438917506274	0.100040878255186	stim02_sf1_pattern1_cont2_shape1.png	1	1	2	1	1	4	0	0	0	0	0	0	0	0	0	0	0	0	1	11
477.2666015625	0.0999916132132057	977442	428	5	stim05_sf1_pattern2_cont1_shape2.png	2	96	0	524.838882786149	524.938874399362	0.0999916132132057	stim05_sf1_pattern2_cont1_shape2.png	1	2	1	2	1	3	0	0	0	0	0	0	0	0	0	0	0	0	1	11
477.7666015625	0.0999534914544711	978466	429	10	stim10_sf2_pattern1_cont2_shape1.png	2	97	0	525.338893342944	525.438846834398	0.0999534914544711	stim10_sf2_pattern1_cont2_shape1.png	2	1	2	1	1	2	0	0	0	0	0	0	0	0	0	0	0	0	1	11
478.2666015625	0.099997478098885	979490	430	7	stim07_sf1_pattern2_cont2_shape2.png	2	98	0	525.838857860384	525.938855338483	0.099997478098885	stim07_sf1_pattern2_cont2_shape2.png	1	2	2	2	1	3	0	0	0	0	0	0	0	0	0	0	0	0	1	11
478.7666015625	0.099988680770366	980514	431	14	stim14_sf2_pattern2_cont2_shape1.png	2	99	0	526.33884466439	526.438833345161	0.099988680770366	stim14_sf2_pattern2_cont2_shape1.png	2	2	2	1	1	1	0	0	0	0	0	0	0	0	0	0	0	0	1	11
479.2666015625	0.0999482130573597	981538	432	15	stim15_sf2_pattern2_cont2_shape2.png	2	100	0	526.838854048208	526.938802261265	0.0999482130573597	stim15_sf2_pattern2_cont2_shape2.png	2	2	2	2	1	1	0	0	0	0	0	0	0	0	0	0	0	0	1	11
479.7666015625	0.0999977713436238	982562	433	11	stim11_sf2_pattern1_cont2_shape2.png	2	101	0	527.338821204847	527.43881897619	0.0999977713436238	stim11_sf2_pattern1_cont2_shape2.png	2	1	2	2	1	2	0	0	0	0	0	0	0	0	0	0	0	0	1	11
480.2666015625	0.0999863348156396	983586	434	3	stim03_sf1_pattern1_cont2_shape2.png	2	102	0	527.838820618358	527.938806953174	0.0999863348156396	stim03_sf1_pattern1_cont2_shape2.png	1	1	2	2	1	4	0	0	0	0	0	0	0	0	0	0	0	0	1	11
480.7666015625	0.0999801766856763	984610	435	4	stim04_sf1_pattern2_cont1_shape1.png	2	103	0	528.33882003187	528.438800208555	0.0999801766856763	stim04_sf1_pattern2_cont1_shape1.png	1	2	1	1	1	3	0	0	0	0	0	0	0	0	0	0	0	0	1	11
481.2666015625	0.100018298443956	985634	436	1	stim01_sf1_pattern1_cont1_shape2.png	2	104	0	528.83879481286	528.938813111304	0.100018298443956	stim01_sf1_pattern1_cont1_shape2.png	1	1	1	2	1	4	0	0	0	0	0	0	0	0	0	0	0	0	1	11
481.7666015625	0.0999790037085404	986658	437	2	stim02_sf1_pattern1_cont2_shape1.png	2	105	0	529.338819152137	529.438798155845	0.0999790037085404	stim02_sf1_pattern1_cont2_shape1.png	1	1	2	1	1	4	0	0	0	0	0	0	0	0	0	0	0	0	1	11
482.2666015625	0.0999954253888973	987682	438	6	stim06_sf1_pattern2_cont2_shape1.png	2	106	0	529.83879276015	529.938788185539	0.0999954253888973	stim06_sf1_pattern2_cont2_shape1.png	1	2	2	1	1	3	0	0	0	0	0	0	0	0	0	0	0	0	1	11
482.7666015625	0.0999924929460576	988706	439	9	stim09_sf2_pattern1_cont1_shape2.png	2	107	0	530.338784842554	530.4387773355	0.0999924929460576	stim09_sf2_pattern1_cont1_shape2.png	2	1	1	2	1	2	0	0	0	0	0	0	0	0	0	0	0	0	1	11
483.2666015625	0.0999980645879077	989730	440	0	stim00_sf1_pattern1_cont1_shape1.png	2	108	0	530.838746720795	530.938744785383	0.0999980645879077	stim00_sf1_pattern1_cont1_shape1.png	1	1	1	1	1	4	0	0	0	0	0	0	0	0	0	0	0	0	1	11
483.7666015625	0.100004515962155	990754	441	5	stim05_sf1_pattern2_cont1_shape2.png	2	109	0	531.33875111946	531.438755635422	0.100004515962155	stim05_sf1_pattern2_cont1_shape2.png	1	2	1	2	1	3	0	0	0	0	0	0	0	0	0	0	0	0	1	11
484.2666015625	0.0999960118774652	991778	442	7	stim07_sf1_pattern2_cont2_shape2.png	2	110	0	531.838726193695	531.938722205572	0.0999960118774652	stim07_sf1_pattern2_cont2_shape2.png	1	2	2	2	1	3	0	0	0	0	0	0	0	0	0	0	0	0	1	11
484.7666015625	0.0999965983664879	992802	443	12	stim12_sf2_pattern2_cont1_shape1.png	2	111	0	532.338727073427	532.438723671794	0.0999965983664879	stim12_sf2_pattern2_cont1_shape1.png	2	2	1	1	1	1	0	0	0	0	0	0	0	0	0	0	0	0	1	11
485.2666015625	0.10001712546682	993826	444	14	stim14_sf2_pattern2_cont2_shape1.png	2	112	0	532.838678688119	532.938695813586	0.10001712546682	stim14_sf2_pattern2_cont2_shape1.png	2	2	2	1	1	1	0	0	0	0	0	0	0	0	0	0	0	0	1	11
485.7666015625	0.0999968916103171	994850	445	10	stim10_sf2_pattern1_cont2_shape1.png	2	113	0	533.338702147662	533.438699039273	0.0999968916103171	stim10_sf2_pattern1_cont2_shape1.png	2	1	2	1	1	2	0	0	0	0	0	0	0	0	0	0	0	0	1	11
486.2666015625	0.0999851618385037	995874	446	8	stim08_sf2_pattern1_cont1_shape1.png	2	114	0	533.838693643578	533.938678805416	0.0999851618385037	stim08_sf2_pattern1_cont1_shape1.png	2	1	1	1	1	2	0	0	0	0	0	0	0	0	0	0	0	0	1	11
486.7666015625	0.100016538978252	996898	447	13	stim13_sf2_pattern2_cont1_shape2.png	2	115	0	534.338642325826	534.438658864804	0.100016538978252	stim13_sf2_pattern2_cont1_shape2.png	2	2	1	2	1	1	0	0	0	0	0	0	0	0	0	0	0	0	1	11
487.2666015625	0.0999983578321917	997922	448	7	stim07_sf1_pattern2_cont2_shape2.png	2	116	0	534.838665198881	534.938663556713	0.0999983578321917	stim07_sf1_pattern2_cont2_shape2.png	1	2	2	2	1	3	0	0	0	0	0	0	0	0	0	0	0	0	1	11
487.7666015625	0.0999945456560454	998946	449	9	stim09_sf2_pattern1_cont1_shape2.png	2	117	0	535.338656108308	535.438650653964	0.0999945456560454	stim09_sf2_pattern1_cont1_shape2.png	2	1	1	2	1	2	0	0	0	0	0	0	0	0	0	0	0	0	1	11
