onset	duration	onsetsample	eventnumber	stimnumber	stimname	blocknumber	trialnumber	istarget	time_stimon	time_stimoff	stimdur	stimfilename	spatial_freq	pattern	contrast	shape	is_fast_stream	category	ppt_1_response	ppt_1_keypressed	ppt_1_rt	ppt_1_correct	ppt_2_response	ppt_2_keypressed	ppt_2_rt	ppt_2_correct	button1	button2	button3	button4	task_part_number	subjectnr
13.84228515625	0.099988358135306	28349	0	1	stim01_sf1_pattern1_cont1_shape2.png	0	0	0	178.195887401775	178.29587575991	0.099988358135306	stim01_sf1_pattern1_cont1_shape2.png	1	1	1	2	1	3	0	0	0	0	0	0	0	0	0	0	0	0	1	18
14.3505859375	0.100006246138946	29390	1	12	stim12_sf2_pattern2_cont1_shape1.png	0	1	0	178.704198431311	178.80420467745	0.100006246138946	stim12_sf2_pattern2_cont1_shape1.png	2	2	1	1	1	2	0	0	0	0	0	0	0	0	0	0	0	0	1	18
14.8505859375	0.106448272737907	30414	2	7	stim07_sf1_pattern2_cont2_shape2.png	0	2	0	179.222751954705	179.329200227443	0.106448272737907	stim07_sf1_pattern2_cont2_shape2.png	1	2	2	2	1	1	0	0	0	0	0	0	0	0	0	0	0	0	1	18
15.37548828125	0.0999719363644545	31489	3	0	stim00_sf1_pattern1_cont1_shape1.png	0	3	0	179.729185623795	179.82915756016	0.0999719363644545	stim00_sf1_pattern1_cont1_shape1.png	1	1	1	1	1	3	0	0	0	0	0	0	0	0	0	0	0	0	1	18
15.87548828125	0.10000126095656	32513	4	3	stim03_sf1_pattern1_cont2_shape2.png	0	4	0	180.229177266287	180.329178527243	0.10000126095656	stim03_sf1_pattern1_cont2_shape2.png	1	1	2	2	1	3	0	0	0	0	0	0	0	0	0	0	0	0	1	18
16.37548828125	0.0999651917063602	33537	5	15	stim15_sf2_pattern2_cont2_shape2.png	0	5	0	180.729173893958	180.829139085665	0.0999651917063602	stim15_sf2_pattern2_cont2_shape2.png	2	2	2	2	1	2	0	0	0	0	0	0	0	0	0	0	0	0	1	18
16.87548828125	0.0999965690225508	34561	6	14	stim14_sf2_pattern2_cont2_shape1.png	0	6	0	181.229164363465	181.329160932488	0.0999965690225508	stim14_sf2_pattern2_cont2_shape1.png	2	2	2	1	1	2	0	0	0	0	0	0	0	0	0	0	0	0	1	18
17.37548828125	0.0999385063278169	35585	7	6	stim06_sf1_pattern2_cont2_shape1.png	0	7	0	181.729214655143	181.82915316147	0.0999385063278169	stim06_sf1_pattern2_cont2_shape1.png	1	2	2	1	1	1	0	0	0	0	0	0	0	0	0	0	0	0	1	18
17.87548828125	0.099997448760405	36609	8	11	stim11_sf2_pattern1_cont2_shape2.png	0	8	0	182.229145302479	182.329142751239	0.099997448760405	stim11_sf2_pattern1_cont2_shape2.png	2	1	2	2	1	4	0	0	0	0	0	0	0	0	0	0	0	0	1	18
18.37548828125	0.0999719363644545	37633	9	13	stim13_sf2_pattern2_cont1_shape2.png	0	9	0	182.729129320576	182.829101256941	0.0999719363644545	stim13_sf2_pattern2_cont1_shape2.png	2	2	1	2	1	2	0	0	0	0	0	0	0	0	0	0	0	0	1	18
18.87548828125	0.0999959825312544	38657	10	8	stim08_sf2_pattern1_cont1_shape1.png	0	10	0	183.229116271132	183.329112253663	0.0999959825312544	stim08_sf2_pattern1_cont1_shape1.png	2	1	1	1	1	4	0	0	0	0	0	0	0	0	0	0	0	0	1	18
19.37548828125	0.0999951027934003	39681	11	2	stim02_sf1_pattern1_cont2_shape1.png	0	11	0	183.729102928442	183.829098031236	0.0999951027934003	stim02_sf1_pattern1_cont2_shape1.png	1	1	2	1	1	3	0	0	0	0	0	0	0	0	0	0	0	0	1	18
19.87548828125	0.0999992082361132	40705	12	5	stim05_sf1_pattern2_cont1_shape2.png	0	12	0	184.229095450672	184.329094658908	0.0999992082361132	stim05_sf1_pattern2_cont1_shape2.png	1	2	1	2	1	1	0	0	0	0	0	0	0	0	0	0	0	0	1	18
20.37548828125	0.0999992082361132	41729	13	9	stim09_sf2_pattern1_cont1_shape2.png	0	13	0	184.729041346796	184.829040555032	0.0999992082361132	stim09_sf2_pattern1_cont1_shape2.png	2	1	1	2	1	4	0	0	0	0	0	0	0	0	0	0	0	0	1	18
20.87548828125	0.0999942230555462	42753	14	10	stim10_sf2_pattern1_cont2_shape1.png	0	14	0	185.229080495128	185.329074718184	0.0999942230555462	stim10_sf2_pattern1_cont2_shape1.png	2	1	2	1	1	4	0	0	0	0	0	0	0	0	0	0	0	0	1	18
21.37548828125	0.0999789742654684	43777	15	4	stim04_sf1_pattern2_cont1_shape1.png	0	15	0	185.729069205161	185.829048179427	0.0999789742654684	stim04_sf1_pattern2_cont1_shape1.png	1	2	1	1	1	1	0	0	0	0	0	0	0	0	0	0	0	0	1	18
21.87548828125	0.0999936365624308	44801	16	9	stim09_sf2_pattern1_cont1_shape2.png	0	16	0	186.229060554406	186.329054190968	0.0999936365624308	stim09_sf2_pattern1_cont1_shape2.png	2	1	1	2	1	4	0	0	0	0	0	0	0	0	0	0	0	0	1	18
22.37548828125	0.0999731093470473	45825	17	15	stim15_sf2_pattern2_cont2_shape2.png	0	17	0	186.729053076635	186.829026185982	0.0999731093470473	stim15_sf2_pattern2_cont2_shape2.png	2	2	2	2	1	2	0	0	0	0	0	0	0	0	0	0	0	0	1	18
22.87548828125	0.0999956892846967	46849	18	13	stim13_sf2_pattern2_cont1_shape2.png	0	18	0	187.229041786666	187.329037475951	0.0999956892846967	stim13_sf2_pattern2_cont1_shape2.png	2	2	1	2	1	2	0	0	0	0	0	0	0	0	0	0	0	0	1	18
23.37548828125	0.0999968622691085	47873	19	5	stim05_sf1_pattern2_cont1_shape2.png	0	19	0	187.729031083189	187.829027945458	0.0999968622691085	stim05_sf1_pattern2_cont1_shape2.png	1	2	1	2	1	1	0	0	0	0	0	0	0	0	0	0	0	0	1	18
23.87548828125	0.0999807337429957	48897	20	6	stim06_sf1_pattern2_cont2_shape1.png	0	20	0	188.229032989288	188.329013723031	0.0999807337429957	stim06_sf1_pattern2_cont2_shape1.png	1	2	2	1	1	1	0	0	0	0	0	0	0	0	0	0	0	0	1	18
24.37548828125	0.0999980352517014	49921	21	10	stim10_sf2_pattern1_cont2_shape1.png	0	21	0	188.729014368171	188.829012403423	0.0999980352517014	stim10_sf2_pattern1_cont2_shape1.png	2	1	2	1	1	4	0	0	0	0	0	0	0	0	0	0	0	0	1	18
24.87548828125	0.0999965690225508	50945	22	4	stim04_sf1_pattern2_cont1_shape1.png	0	22	0	189.229002198465	189.328998767487	0.0999965690225508	stim04_sf1_pattern2_cont1_shape1.png	1	2	1	1	1	1	0	0	0	0	0	0	0	0	0	0	0	0	1	18
25.37548828125	0.099997448760405	51969	23	14	stim14_sf2_pattern2_cont2_shape1.png	0	23	0	189.728993254465	189.828990703225	0.099997448760405	stim14_sf2_pattern2_cont2_shape1.png	2	2	2	1	1	2	0	0	0	0	0	0	0	0	0	0	0	0	1	18
25.87548828125	0.100020908435908	52993	24	11	stim11_sf2_pattern1_cont2_shape2.png	0	24	0	190.22896583597	190.328986744405	0.100020908435908	stim11_sf2_pattern1_cont2_shape2.png	2	1	2	2	1	4	0	0	0	0	0	0	0	0	0	0	0	0	1	18
26.37548828125	0.0999830797100003	54017	25	0	stim00_sf1_pattern1_cont1_shape1.png	0	25	0	190.72897126102	190.82895434073	0.0999830797100003	stim00_sf1_pattern1_cont1_shape1.png	1	1	1	1	1	3	0	0	0	0	0	0	0	0	0	0	0	0	1	18
26.875	0.100017975975788	55040	26	1	stim01_sf1_pattern1_cont1_shape2.png	0	26	0	191.228950587181	191.328968563157	0.100017975975788	stim01_sf1_pattern1_cont1_shape2.png	1	1	1	2	1	3	0	0	0	0	0	0	0	0	0	0	0	0	1	18
27.375	0.0999948095468426	56064	27	2	stim02_sf1_pattern1_cont2_shape1.png	0	27	0	191.728937830983	191.82893264053	0.0999948095468426	stim02_sf1_pattern1_cont2_shape1.png	1	1	2	1	1	3	0	0	0	0	0	0	0	0	0	0	0	0	1	18
27.875	0.100030292303927	57088	28	8	stim08_sf2_pattern1_cont1_shape1.png	0	28	1	192.228924488294	192.328954780598	0.100030292303927	stim08_sf2_pattern1_cont1_shape1.png	2	1	1	1	1	4	0	0	0	0	0	0	0	0	0	0	0	0	1	18
28.375	0.0999707633818616	58112	29	8	stim08_sf2_pattern1_cont1_shape1.png	0	29	1	192.728941056688	192.82891182007	0.0999707633818616	stim08_sf2_pattern1_cont1_shape1.png	2	1	1	1	1	4	0	0	0	0	0	0	0	0	0	0	0	0	1	18
28.875	0.0999874783992709	59136	30	11	stim11_sf2_pattern1_cont2_shape2.png	0	30	2	193.228911292226	193.328898770626	0.0999874783992709	stim11_sf2_pattern1_cont2_shape2.png	2	1	2	2	1	4	0	0	0	0	0	0	0	0	0	0	0	0	1	18
29.375	0.10000126095656	60160	31	9	stim09_sf2_pattern1_cont1_shape2.png	0	31	2	193.728898242784	193.82889950374	0.10000126095656	stim09_sf2_pattern1_cont1_shape2.png	2	1	1	2	1	4	0	0	0	0	0	0	0	0	0	0	0	0	1	18
29.875	0.0999895311215369	61184	32	8	stim08_sf2_pattern1_cont1_shape1.png	0	32	0	194.228920676096	194.328910207218	0.0999895311215369	stim08_sf2_pattern1_cont1_shape1.png	2	1	1	1	1	4	0	0	0	0	0	0	0	0	0	0	0	0	1	18
30.375	0.0999692971527111	62208	33	3	stim03_sf1_pattern1_cont2_shape2.png	0	33	0	194.728905280685	194.828874577837	0.0999692971527111	stim03_sf1_pattern1_cont2_shape2.png	1	1	2	2	1	3	0	0	0	0	0	0	0	0	0	0	0	0	1	18
30.875	0.0999792675120261	63232	34	7	stim07_sf1_pattern2_cont2_shape2.png	0	34	0	195.228911878719	195.328891146231	0.0999792675120261	stim07_sf1_pattern2_cont2_shape2.png	1	2	2	2	1	1	0	0	0	0	0	0	0	0	0	0	0	0	1	18
31.375	0.0999980352535204	64256	35	12	stim12_sf2_pattern2_cont1_shape1.png	0	35	0	195.72889267111	195.828890706363	0.0999980352535204	stim12_sf2_pattern2_cont1_shape1.png	2	2	1	1	1	2	0	0	0	0	0	0	0	0	0	0	0	0	1	18
31.875	0.0999909973488684	65280	36	2	stim02_sf1_pattern1_cont2_shape1.png	0	36	0	196.228890471766	196.328881469115	0.0999909973488684	stim02_sf1_pattern1_cont2_shape1.png	1	1	2	1	1	3	0	0	0	0	0	0	0	0	0	0	0	0	1	18
32.375	0.0999909973506874	66304	37	0	stim00_sf1_pattern1_cont1_shape1.png	0	37	0	196.728863639762	196.828854637113	0.0999909973506874	stim00_sf1_pattern1_cont1_shape1.png	1	1	1	1	1	3	0	0	0	0	0	0	0	0	0	0	0	0	1	18
32.875	0.100000967711821	67328	38	14	stim14_sf2_pattern2_cont2_shape1.png	0	38	0	197.228856161992	197.328857129703	0.100000967711821	stim14_sf2_pattern2_cont2_shape1.png	2	2	2	1	1	2	0	0	0	0	0	0	0	0	0	0	0	0	1	18
33.375	0.100003900171941	68352	39	11	stim11_sf2_pattern1_cont2_shape2.png	0	39	0	197.728847511236	197.828851411408	0.100003900171941	stim11_sf2_pattern1_cont2_shape2.png	2	1	2	2	1	4	0	0	0	0	0	0	0	0	0	0	0	0	1	18
33.875	0.0999965690225508	69376	40	8	stim08_sf2_pattern1_cont1_shape1.png	0	40	0	198.228836221269	198.328832790292	0.0999965690225508	stim08_sf2_pattern1_cont1_shape1.png	2	1	1	1	1	4	0	0	0	0	0	0	0	0	0	0	0	0	1	18
34.375	0.0999836662012967	70400	41	7	stim07_sf1_pattern2_cont2_shape2.png	0	41	0	198.728828450252	198.828812116453	0.0999836662012967	stim07_sf1_pattern2_cont2_shape2.png	1	2	2	2	1	1	0	0	0	0	0	0	0	0	0	0	0	0	1	18
34.875	0.0999965690225508	71424	42	4	stim04_sf1_pattern2_cont1_shape1.png	0	42	0	199.228818333268	199.32881490229	0.0999965690225508	stim04_sf1_pattern2_cont1_shape1.png	1	2	1	1	1	1	0	0	0	0	0	0	0	0	0	0	0	0	1	18
35.375	0.0999945163021039	72448	43	12	stim12_sf2_pattern2_cont1_shape1.png	0	43	0	199.728784463361	199.828778979663	0.0999945163021039	stim12_sf2_pattern2_cont1_shape1.png	2	2	1	1	1	2	0	0	0	0	0	0	0	0	0	0	0	0	1	18
35.875	0.0999983284982591	73472	44	6	stim06_sf1_pattern2_cont2_shape1.png	0	44	0	200.22880073851	200.328799067009	0.0999983284982591	stim06_sf1_pattern2_cont2_shape1.png	1	2	2	1	1	1	0	0	0	0	0	0	0	0	0	0	0	0	1	18
36.375	0.0999865986614168	74496	45	5	stim05_sf1_pattern2_cont1_shape2.png	0	45	0	200.728792381002	200.828778979663	0.0999865986614168	stim05_sf1_pattern2_cont1_shape2.png	1	2	1	2	1	1	0	0	0	0	0	0	0	0	0	0	0	0	1	18
36.875	0.0999986217448168	75520	46	13	stim13_sf2_pattern2_cont1_shape2.png	0	46	0	201.228780211295	201.32877883304	0.0999986217448168	stim13_sf2_pattern2_cont1_shape2.png	2	2	1	2	1	2	0	0	0	0	0	0	0	0	0	0	0	0	1	18
37.375	0.0999927568263956	76544	47	9	stim09_sf2_pattern1_cont1_shape2.png	0	47	0	201.728753965785	201.828746722611	0.0999927568263956	stim09_sf2_pattern1_cont1_shape2.png	2	1	1	2	1	4	0	0	0	0	0	0	0	0	0	0	0	0	1	18
37.875	0.0999995014808519	77568	48	3	stim03_sf1_pattern1_cont2_shape2.png	0	48	0	202.228762030049	202.328761531529	0.0999995014808519	stim03_sf1_pattern1_cont2_shape2.png	1	1	2	2	1	3	0	0	0	0	0	0	0	0	0	0	0	0	1	18
38.375	0.100001260958379	78592	49	1	stim01_sf1_pattern1_cont1_shape2.png	0	49	0	202.728750446833	202.828751707792	0.100001260958379	stim01_sf1_pattern1_cont1_shape2.png	1	1	1	2	1	3	0	0	0	0	0	0	0	0	0	0	0	0	1	18
38.875	0.0999959825312544	79616	50	3	stim03_sf1_pattern1_cont2_shape2.png	0	50	1	203.228746194767	203.328742177298	0.0999959825312544	stim03_sf1_pattern1_cont2_shape2.png	1	1	2	2	1	3	0	0	0	0	0	0	0	0	0	0	0	0	1	18
39.375	0.099968417413038	80640	51	3	stim03_sf1_pattern1_cont2_shape2.png	0	51	1	203.728737250767	203.82870566818	0.099968417413038	stim03_sf1_pattern1_cont2_shape2.png	1	1	2	2	1	3	0	0	0	0	0	0	0	0	0	0	0	0	1	18
39.875	0.100023254402913	81664	52	9	stim09_sf2_pattern1_cont1_shape2.png	0	52	2	204.228698102435	204.328721356838	0.100023254402913	stim09_sf2_pattern1_cont1_shape2.png	2	1	1	2	1	4	0	0	0	0	0	0	0	0	0	0	0	0	1	18
40.375	0.0999690039061534	82688	53	4	stim04_sf1_pattern2_cont1_shape1.png	0	53	2	204.728715843814	204.82868484772	0.0999690039061534	stim04_sf1_pattern2_cont1_shape1.png	1	2	1	1	1	1	0	0	0	0	0	0	0	0	0	0	0	0	1	18
40.875	0.10001181781081	83712	54	10	stim10_sf2_pattern1_cont2_shape1.png	0	54	0	205.228688132074	205.328699949885	0.10001181781081	stim10_sf2_pattern1_cont2_shape1.png	2	1	2	1	1	4	0	0	0	0	0	0	0	0	0	0	0	0	1	18
41.375	0.100004779907977	84736	55	15	stim15_sf2_pattern2_cont2_shape2.png	0	55	0	205.728688278698	205.828693058605	0.100004779907977	stim15_sf2_pattern2_cont2_shape2.png	2	2	2	2	1	2	0	0	0	0	0	0	0	0	0	0	0	0	1	18
41.875	0.100025600369918	85760	56	0	stim00_sf1_pattern1_cont1_shape1.png	0	56	0	206.228662619678	206.328688220048	0.100025600369918	stim00_sf1_pattern1_cont1_shape1.png	1	1	1	1	1	3	0	0	0	0	0	0	0	0	0	0	0	0	1	18
42.375	0.10001328403996	86784	57	14	stim14_sf2_pattern2_cont2_shape1.png	0	57	0	206.728615846952	206.828629130992	0.10001328403996	stim14_sf2_pattern2_cont2_shape1.png	2	2	2	1	1	2	0	0	0	0	0	0	0	0	0	0	0	0	1	18
42.875	0.099983372954739	87808	58	12	stim12_sf2_pattern2_cont1_shape1.png	0	58	0	207.228658514236	207.32864188719	0.099983372954739	stim12_sf2_pattern2_cont1_shape1.png	2	2	1	1	1	2	0	0	0	0	0	0	0	0	0	0	0	0	1	18
43.375	0.100003900170123	88832	59	7	stim07_sf1_pattern2_cont2_shape2.png	0	59	0	207.72863549443	207.8286393946	0.100003900170123	stim07_sf1_pattern2_cont2_shape2.png	1	2	2	2	1	1	0	0	0	0	0	0	0	0	0	0	0	0	1	18
43.87451171875	0.0999751620693132	89855	60	10	stim10_sf2_pattern1_cont2_shape1.png	0	60	0	208.228648837119	208.328623999188	0.0999751620693132	stim10_sf2_pattern1_cont2_shape1.png	2	1	2	1	1	4	0	0	0	0	0	0	0	0	0	0	0	0	1	18
44.37451171875	0.0999722296091932	90879	61	8	stim08_sf2_pattern1_cont1_shape1.png	0	61	0	208.728646637775	208.828618867385	0.0999722296091932	stim08_sf2_pattern1_cont1_shape1.png	2	1	1	1	1	4	0	0	0	0	0	0	0	0	0	0	0	0	1	18
44.87451171875	0.0999786810207297	91903	62	11	stim11_sf2_pattern1_cont2_shape2.png	0	62	0	209.228633295084	209.328611976105	0.0999786810207297	stim11_sf2_pattern1_cont2_shape2.png	2	1	2	2	1	4	0	0	0	0	0	0	0	0	0	0	0	0	1	18
45.37451171875	0.0999094749804499	92927	63	2	stim02_sf1_pattern1_cont2_shape1.png	0	63	0	209.728712031618	209.828621506598	0.0999094749804499	stim02_sf1_pattern1_cont2_shape1.png	1	1	2	1	1	3	0	0	0	0	0	0	0	0	0	0	0	0	1	18
45.87451171875	0.0999880648905673	93951	64	6	stim06_sf1_pattern2_cont2_shape1.png	0	64	0	210.228626257183	210.328614322074	0.0999880648905673	stim06_sf1_pattern2_cont2_shape1.png	1	2	2	1	1	1	0	0	0	0	0	0	0	0	0	0	0	0	1	18
46.37451171875	0.0999983284982591	94975	65	4	stim04_sf1_pattern2_cont1_shape1.png	0	65	0	210.728604996853	210.828603325352	0.0999983284982591	stim04_sf1_pattern2_cont1_shape1.png	1	2	1	1	1	1	0	0	0	0	0	0	0	0	0	0	0	0	1	18
46.87451171875	0.099878390912636	95999	66	13	stim13_sf2_pattern2_cont1_shape2.png	0	66	0	211.228722441847	211.32860083276	0.099878390912636	stim13_sf2_pattern2_cont1_shape2.png	2	2	1	2	1	2	0	0	0	0	0	0	0	0	0	0	0	0	1	18
47.37451171875	0.0999942230555462	97023	67	9	stim09_sf2_pattern1_cont1_shape2.png	0	67	0	211.728588575081	211.828582798136	0.0999942230555462	stim09_sf2_pattern1_cont1_shape2.png	2	1	1	2	1	4	0	0	0	0	0	0	0	0	0	0	0	0	1	18
47.87451171875	0.0999948095468426	98047	68	1	stim01_sf1_pattern1_cont1_shape2.png	0	68	0	212.228579337834	212.328574147381	0.0999948095468426	stim01_sf1_pattern1_cont1_shape2.png	1	1	1	2	1	3	0	0	0	0	0	0	0	0	0	0	0	0	1	18
48.37451171875	0.0999968622691085	99071	69	3	stim03_sf1_pattern1_cont2_shape2.png	0	69	0	212.728579777702	212.828576639971	0.0999968622691085	stim03_sf1_pattern1_cont2_shape2.png	1	1	2	2	1	3	0	0	0	0	0	0	0	0	0	0	0	0	1	18
48.87451171875	0.0999983284982591	100095	70	10	stim10_sf2_pattern1_cont2_shape1.png	0	70	1	213.228560276848	213.328558605346	0.0999983284982591	stim10_sf2_pattern1_cont2_shape1.png	2	1	2	1	1	4	0	0	0	0	0	0	0	0	0	0	0	0	1	18
49.37451171875	0.0999995014826709	101119	71	10	stim10_sf2_pattern1_cont2_shape1.png	0	71	1	213.728549280126	213.828548781608	0.0999995014826709	stim10_sf2_pattern1_cont2_shape1.png	2	1	2	1	1	4	0	0	0	0	0	0	0	0	0	0	0	0	1	18
49.87451171875	0.0999927568263956	102143	72	6	stim06_sf1_pattern2_cont2_shape1.png	0	72	2	214.228545907798	214.328538664624	0.0999927568263956	stim06_sf1_pattern2_cont2_shape1.png	1	2	2	1	1	1	0	0	0	0	0	0	0	0	0	0	0	0	1	18
50.37451171875	0.100000381220525	103167	73	5	stim05_sf1_pattern2_cont1_shape2.png	0	73	2	214.728529632648	214.828530013869	0.100000381220525	stim05_sf1_pattern2_cont1_shape2.png	1	2	1	2	1	1	0	0	0	0	0	0	0	0	0	0	0	0	1	18
50.87451171875	0.100000381220525	104191	74	15	stim15_sf2_pattern2_cont2_shape2.png	0	74	0	215.228520395402	215.328520776622	0.100000381220525	stim15_sf2_pattern2_cont2_shape2.png	2	2	2	2	1	2	0	0	0	0	0	0	0	0	0	0	0	0	1	18
51.37451171875	0.100024134138948	105215	75	5	stim05_sf1_pattern2_cont1_shape2.png	0	75	0	215.728488284973	215.828512419112	0.100024134138948	stim05_sf1_pattern2_cont1_shape2.png	1	2	1	2	1	1	0	0	0	0	0	0	0	0	0	0	0	0	1	18
51.87451171875	0.0999948095468426	106239	76	0	stim00_sf1_pattern1_cont1_shape1.png	0	76	0	216.228507785827	216.328502595374	0.0999948095468426	stim00_sf1_pattern1_cont1_shape1.png	1	1	1	1	1	3	0	0	0	0	0	0	0	0	0	0	0	0	1	18
52.37451171875	0.0999959825312544	107263	77	7	stim07_sf1_pattern2_cont2_shape2.png	0	77	0	216.72849561612	216.828491598651	0.0999959825312544	stim07_sf1_pattern2_cont2_shape2.png	1	2	2	2	1	1	0	0	0	0	0	0	0	0	0	0	0	0	1	18
52.87451171875	0.0999959825312544	108287	78	2	stim02_sf1_pattern1_cont2_shape1.png	0	78	0	217.228486378874	217.328482361405	0.0999959825312544	stim02_sf1_pattern1_cont2_shape1.png	1	1	2	1	1	3	0	0	0	0	0	0	0	0	0	0	0	0	1	18
53.37451171875	0.0999951027934003	109311	79	1	stim01_sf1_pattern1_cont1_shape2.png	0	79	0	217.728479194348	217.828474297141	0.0999951027934003	stim01_sf1_pattern1_cont1_shape2.png	1	1	1	2	1	3	0	0	0	0	0	0	0	0	0	0	0	0	1	18
53.87451171875	0.0999951027934003	110335	80	5	stim05_sf1_pattern2_cont1_shape2.png	0	80	0	218.228469957101	218.328465059894	0.0999951027934003	stim05_sf1_pattern2_cont1_shape2.png	1	2	1	2	1	1	0	0	0	0	0	0	0	0	0	0	0	0	1	18
54.37451171875	0.0999951027915813	111359	81	9	stim09_sf2_pattern1_cont1_shape2.png	0	81	0	218.728458667134	218.828453769926	0.0999951027915813	stim09_sf2_pattern1_cont1_shape2.png	2	1	1	2	1	4	0	0	0	0	0	0	0	0	0	0	0	0	1	18
54.87451171875	0.0999933433176921	112383	82	4	stim04_sf1_pattern2_cont1_shape1.png	0	82	0	219.228452655592	219.32844599891	0.0999933433176921	stim04_sf1_pattern2_cont1_shape1.png	1	2	1	1	1	1	0	0	0	0	0	0	0	0	0	0	0	0	1	18
55.37451171875	0.0999986217448168	113407	83	12	stim12_sf2_pattern2_cont1_shape1.png	0	83	0	219.728438433163	219.828437054908	0.0999986217448168	stim12_sf2_pattern2_cont1_shape1.png	2	2	1	1	1	2	0	0	0	0	0	0	0	0	0	0	0	0	1	18
55.87451171875	0.100021788173763	114431	84	11	stim11_sf2_pattern1_cont2_shape2.png	0	84	0	220.228406909226	220.328428697399	0.100021788173763	stim11_sf2_pattern1_cont2_shape2.png	2	1	2	2	1	4	0	0	0	0	0	0	0	0	0	0	0	0	1	18
56.37451171875	0.100005073154534	115455	85	6	stim06_sf1_pattern2_cont2_shape1.png	0	85	0	220.728423184375	220.82842825753	0.100005073154534	stim06_sf1_pattern2_cont2_shape1.png	1	2	2	1	1	1	0	0	0	0	0	0	0	0	0	0	0	0	1	18
56.87451171875	0.0999959825312544	116479	86	3	stim03_sf1_pattern1_cont2_shape2.png	0	86	0	221.228388727979	221.32838471051	0.0999959825312544	stim03_sf1_pattern1_cont2_shape2.png	1	1	2	2	1	3	0	0	0	0	0	0	0	0	0	0	0	0	1	18
57.37451171875	0.100008592105951	117503	87	15	stim15_sf2_pattern2_cont2_shape2.png	0	87	0	221.728387115127	221.828395707233	0.100008592105951	stim15_sf2_pattern2_cont2_shape2.png	2	2	2	2	1	2	0	0	0	0	0	0	0	0	0	0	0	0	1	18
57.87451171875	0.100022374665059	118527	88	8	stim08_sf2_pattern1_cont1_shape1.png	0	88	0	222.228369960239	222.328392334904	0.100022374665059	stim08_sf2_pattern1_cont1_shape1.png	2	1	1	1	1	4	0	0	0	0	0	0	0	0	0	0	0	0	1	18
58.37451171875	0.0999945163002849	119551	89	10	stim10_sf2_pattern1_cont2_shape1.png	0	89	0	222.728362482469	222.828356998769	0.0999945163002849	stim10_sf2_pattern1_cont2_shape1.png	2	1	2	1	1	4	0	0	0	0	0	0	0	0	0	0	0	0	1	18
58.87451171875	0.0999789742672874	120575	90	13	stim13_sf2_pattern2_cont1_shape2.png	0	90	0	223.228368200764	223.328347175031	0.0999789742672874	stim13_sf2_pattern2_cont1_shape2.png	2	2	1	2	1	2	0	0	0	0	0	0	0	0	0	0	0	0	1	18
59.37451171875	0.0999607930189086	121599	91	14	stim14_sf2_pattern2_cont2_shape1.png	0	91	0	223.728377731257	223.828338524276	0.0999607930189086	stim14_sf2_pattern2_cont2_shape1.png	2	2	2	1	1	2	0	0	0	0	0	0	0	0	0	0	0	0	1	18
59.87451171875	0.0999968622672895	122623	92	12	stim12_sf2_pattern2_cont1_shape1.png	0	92	0	224.228337116696	224.328333978963	0.0999968622672895	stim12_sf2_pattern2_cont1_shape1.png	2	2	1	1	1	2	0	0	0	0	0	0	0	0	0	0	0	0	1	18
60.37451171875	0.0999892378749792	123647	93	10	stim10_sf2_pattern1_cont2_shape1.png	0	93	0	224.728356031057	224.828345268932	0.0999892378749792	stim10_sf2_pattern1_cont2_shape1.png	2	1	2	1	1	4	0	0	0	0	0	0	0	0	0	0	0	0	1	18
60.87451171875	0.100000087973967	124671	94	0	stim00_sf1_pattern1_cont1_shape1.png	0	94	0	225.228349139777	225.328349227751	0.100000087973967	stim00_sf1_pattern1_cont1_shape1.png	1	1	1	1	1	3	0	0	0	0	0	0	0	0	0	0	0	0	1	18
61.3740234375	0.099985425677005	125694	95	9	stim09_sf2_pattern1_cont1_shape2.png	0	95	0	225.72833784981	225.828323275487	0.099985425677005	stim09_sf2_pattern1_cont1_shape2.png	2	1	1	2	1	4	0	0	0	0	0	0	0	0	0	0	0	0	1	18
61.8740234375	0.0999997947274096	126718	96	3	stim03_sf1_pattern1_cont2_shape2.png	0	96	0	226.228326853088	226.328326647816	0.0999997947274096	stim03_sf1_pattern1_cont2_shape2.png	1	1	2	2	1	3	0	0	0	0	0	0	0	0	0	0	0	0	1	18
62.3740234375	0.0999986217429978	127742	97	11	stim11_sf2_pattern1_cont2_shape2.png	0	97	0	226.728320841547	226.82831946329	0.0999986217429978	stim11_sf2_pattern1_cont2_shape2.png	2	1	2	2	1	4	0	0	0	0	0	0	0	0	0	0	0	0	1	18
62.8740234375	0.0999948095468426	128766	98	5	stim05_sf1_pattern2_cont1_shape2.png	0	98	0	227.228306912364	227.328301721911	0.0999948095468426	stim05_sf1_pattern2_cont1_shape2.png	1	2	1	2	1	1	0	0	0	0	0	0	0	0	0	0	0	0	1	18
63.3740234375	0.0999968622691085	129790	99	14	stim14_sf2_pattern2_cont2_shape1.png	0	99	0	227.728295035904	227.828291898173	0.0999968622691085	stim14_sf2_pattern2_cont2_shape1.png	2	2	2	1	1	2	0	0	0	0	0	0	0	0	0	0	0	0	1	18
63.8740234375	0.0999962757759931	130814	100	8	stim08_sf2_pattern1_cont1_shape1.png	0	100	0	228.228285212166	228.328281487942	0.0999962757759931	stim08_sf2_pattern1_cont1_shape1.png	2	1	1	1	1	4	0	0	0	0	0	0	0	0	0	0	0	0	1	18
64.3740234375	0.0999930500711343	131838	101	13	stim13_sf2_pattern2_cont1_shape2.png	0	101	0	228.728279200624	228.828272250696	0.0999930500711343	stim13_sf2_pattern2_cont1_shape2.png	2	2	1	2	1	2	0	0	0	0	0	0	0	0	0	0	0	0	1	18
64.8740234375	0.0999951027934003	132862	102	4	stim04_sf1_pattern2_cont1_shape1.png	0	102	0	229.228268497147	229.32826359994	0.0999951027934003	stim04_sf1_pattern2_cont1_shape1.png	1	2	1	1	1	1	0	0	0	0	0	0	0	0	0	0	0	0	1	18
65.3740234375	0.0999901176128333	133886	103	2	stim02_sf1_pattern1_cont2_shape1.png	0	103	0	229.728266004557	229.828256122169	0.0999901176128333	stim02_sf1_pattern1_cont2_shape1.png	1	1	2	1	1	3	0	0	0	0	0	0	0	0	0	0	0	0	1	18
65.8740234375	0.0999995014826709	134910	104	7	stim07_sf1_pattern2_cont2_shape2.png	0	104	0	230.22824738344	230.328246884923	0.0999995014826709	stim07_sf1_pattern2_cont2_shape2.png	1	2	2	2	1	1	0	0	0	0	0	0	0	0	0	0	0	0	1	18
66.3740234375	0.0999989149913745	135934	105	15	stim15_sf2_pattern2_cont2_shape2.png	0	105	0	230.728238732685	230.828237647676	0.0999989149913745	stim15_sf2_pattern2_cont2_shape2.png	2	2	2	2	1	2	0	0	0	0	0	0	0	0	0	0	0	0	1	18
66.8740234375	0.0999992082361132	136958	106	6	stim06_sf1_pattern2_cont2_shape1.png	0	106	0	231.228229788685	231.328228996921	0.0999992082361132	stim06_sf1_pattern2_cont2_shape1.png	1	2	2	1	1	1	0	0	0	0	0	0	0	0	0	0	0	0	1	18
67.3740234375	0.0999901176110143	137982	107	1	stim01_sf1_pattern1_cont1_shape2.png	0	107	0	231.728232574522	231.828222692133	0.0999901176110143	stim01_sf1_pattern1_cont1_shape2.png	1	1	1	2	1	3	0	0	0	0	0	0	0	0	0	0	0	0	1	18
67.8740234375	0.100004779909796	139006	108	5	stim05_sf1_pattern2_cont1_shape2.png	0	108	0	232.228214833141	232.328219613051	0.100004779909796	stim05_sf1_pattern2_cont1_shape2.png	1	2	1	2	1	1	0	0	0	0	0	0	0	0	0	0	0	0	1	18
68.3740234375	0.099997448760405	140030	109	7	stim07_sf1_pattern2_cont2_shape2.png	0	109	0	232.728203836419	232.82820128518	0.099997448760405	stim07_sf1_pattern2_cont2_shape2.png	1	2	2	2	1	1	0	0	0	0	0	0	0	0	0	0	0	0	1	18
68.8740234375	0.0999971555138472	141054	110	0	stim00_sf1_pattern1_cont1_shape1.png	0	110	0	233.228193132943	233.328190288457	0.0999971555138472	stim00_sf1_pattern1_cont1_shape1.png	1	1	1	1	1	3	0	0	0	0	0	0	0	0	0	0	0	0	1	18
69.3740234375	0.0999936365624308	142078	111	1	stim01_sf1_pattern1_cont1_shape2.png	0	111	0	233.728190053862	233.828183690424	0.0999936365624308	stim01_sf1_pattern1_cont1_shape2.png	1	1	1	2	1	3	0	0	0	0	0	0	0	0	0	0	0	0	1	18
69.8740234375	0.0999951027934003	143102	112	9	stim09_sf2_pattern1_cont1_shape2.png	0	112	0	234.228176711171	234.328171813964	0.0999951027934003	stim09_sf2_pattern1_cont1_shape2.png	2	1	1	2	1	4	0	0	0	0	0	0	0	0	0	0	0	0	1	18
70.3740234375	0.0999995014808519	144126	113	11	stim11_sf2_pattern1_cont2_shape2.png	0	113	0	234.728167767171	234.828167268652	0.0999995014808519	stim11_sf2_pattern1_cont2_shape2.png	2	1	2	2	1	4	0	0	0	0	0	0	0	0	0	0	0	0	1	18
70.8740234375	0.0999989149913745	145150	114	4	stim04_sf1_pattern2_cont1_shape1.png	0	114	0	235.228157063693	235.328155978685	0.0999989149913745	stim04_sf1_pattern2_cont1_shape1.png	1	2	1	1	1	1	0	0	0	0	0	0	0	0	0	0	0	0	1	18
71.3740234375	0.0999956892846967	146174	115	13	stim13_sf2_pattern2_cont1_shape2.png	0	115	0	235.728146946709	235.828142635994	0.0999956892846967	stim13_sf2_pattern2_cont1_shape2.png	2	2	1	2	1	2	0	0	0	0	0	0	0	0	0	0	0	0	1	18
71.8740234375	0.0999995014808519	147198	116	12	stim12_sf2_pattern2_cont1_shape1.png	0	116	0	236.228131258053	236.328130759533	0.0999995014808519	stim12_sf2_pattern2_cont1_shape1.png	2	2	1	1	1	2	0	0	0	0	0	0	0	0	0	0	0	0	1	18
72.3740234375	0.0999965690243698	148222	117	6	stim06_sf1_pattern2_cont2_shape1.png	0	117	0	236.728105892278	236.828102461302	0.0999965690243698	stim06_sf1_pattern2_cont2_shape1.png	1	2	2	1	1	1	0	0	0	0	0	0	0	0	0	0	0	0	1	18
72.8740234375	0.0999989149895555	149246	118	8	stim08_sf2_pattern1_cont1_shape1.png	0	118	0	237.228103106443	237.328102021433	0.0999989149895555	stim08_sf2_pattern1_cont1_shape1.png	2	1	1	1	1	4	0	0	0	0	0	0	0	0	0	0	0	0	1	18
73.3740234375	0.099966364692591	150270	119	15	stim15_sf2_pattern2_cont2_shape2.png	0	119	0	237.728119088346	237.828085453039	0.099966364692591	stim15_sf2_pattern2_cont2_shape2.png	2	2	2	2	1	2	0	0	0	0	0	0	0	0	0	0	0	0	1	18
73.8740234375	0.0999945163002849	151294	120	2	stim02_sf1_pattern1_cont2_shape1.png	0	120	0	238.228079940014	238.328074456314	0.0999945163002849	stim02_sf1_pattern1_cont2_shape1.png	1	1	2	1	1	3	0	0	0	0	0	0	0	0	0	0	0	0	1	18
74.3740234375	0.100006246138946	152318	121	10	stim10_sf2_pattern1_cont2_shape1.png	0	121	0	238.72806982303	238.828076069169	0.100006246138946	stim10_sf2_pattern1_cont2_shape1.png	2	1	2	1	1	4	0	0	0	0	0	0	0	0	0	0	0	0	1	18
74.8740234375	0.0999933433176921	153342	122	3	stim03_sf1_pattern1_cont2_shape2.png	0	122	0	239.228063518241	239.328056861559	0.0999933433176921	stim03_sf1_pattern1_cont2_shape2.png	1	1	2	2	1	3	0	0	0	0	0	0	0	0	0	0	0	0	1	18
75.3740234375	0.0999915838419838	154366	123	14	stim14_sf2_pattern2_cont2_shape1.png	0	123	0	239.728071582505	239.828063166347	0.0999915838419838	stim14_sf2_pattern2_cont2_shape1.png	2	2	2	1	1	2	0	0	0	0	0	0	0	0	0	0	0	0	1	18
75.8740234375	0.0999962757759931	155390	124	13	stim13_sf2_pattern2_cont1_shape2.png	0	124	0	240.228076714309	240.328072990085	0.0999962757759931	stim13_sf2_pattern2_cont1_shape2.png	2	2	1	2	1	2	0	0	0	0	0	0	0	0	0	0	0	0	1	18
76.3740234375	0.0999907041041297	156414	125	8	stim08_sf2_pattern1_cont1_shape1.png	0	125	0	240.72806689057	240.828057594674	0.0999907041041297	stim08_sf2_pattern1_cont1_shape1.png	2	1	1	1	1	4	0	0	0	0	0	0	0	0	0	0	0	0	1	18
76.8740234375	0.0999997947274096	157438	126	10	stim10_sf2_pattern1_cont2_shape1.png	0	126	0	241.228055600603	241.32805539533	0.0999997947274096	stim10_sf2_pattern1_cont2_shape1.png	2	1	2	1	1	4	0	0	0	0	0	0	0	0	0	0	0	0	1	18
77.3740234375	0.100002433940972	158462	127	3	stim03_sf1_pattern1_cont2_shape2.png	0	127	0	241.728045776863	241.828048210804	0.100002433940972	stim03_sf1_pattern1_cont2_shape2.png	1	1	2	2	1	3	0	0	0	0	0	0	0	0	0	0	0	0	1	18
77.8740234375	0.0999892378749792	159486	128	5	stim05_sf1_pattern2_cont1_shape2.png	0	128	0	242.228039765321	242.328029003196	0.0999892378749792	stim05_sf1_pattern2_cont1_shape2.png	1	2	1	2	1	1	0	0	0	0	0	0	0	0	0	0	0	0	1	18
78.37353515625	0.0999997947274096	160509	129	15	stim15_sf2_pattern2_cont2_shape2.png	0	129	0	242.728019677976	242.828019472703	0.0999997947274096	stim15_sf2_pattern2_cont2_shape2.png	2	2	2	2	1	2	0	0	0	0	0	0	0	0	0	0	0	0	1	18
78.87353515625	0.100035570732871	161533	130	9	stim09_sf2_pattern1_cont1_shape2.png	0	130	0	243.227986981054	243.328022551786	0.100035570732871	stim09_sf2_pattern1_cont1_shape2.png	2	1	1	2	1	4	0	0	0	0	0	0	0	0	0	0	0	0	1	18
79.37353515625	0.0999986217429978	162557	131	14	stim14_sf2_pattern2_cont2_shape1.png	0	131	0	243.72800354945	243.828002171193	0.0999986217429978	stim14_sf2_pattern2_cont2_shape1.png	2	2	2	1	1	2	0	0	0	0	0	0	0	0	0	0	0	0	1	18
79.87353515625	0.099997448760405	163581	132	0	stim00_sf1_pattern1_cont1_shape1.png	0	132	0	244.227994018956	244.327991467717	0.099997448760405	stim00_sf1_pattern1_cont1_shape1.png	1	1	1	1	1	3	0	0	0	0	0	0	0	0	0	0	0	0	1	18
80.37353515625	0.0999989149895555	164605	133	12	stim12_sf2_pattern2_cont1_shape1.png	0	133	0	244.727987420923	244.827986335913	0.0999989149895555	stim12_sf2_pattern2_cont1_shape1.png	2	2	1	1	1	2	0	0	0	0	0	0	0	0	0	0	0	0	1	18
80.87353515625	0.0999959825312544	165629	134	11	stim11_sf2_pattern1_cont2_shape2.png	0	134	0	245.227977010692	245.327972993224	0.0999959825312544	stim11_sf2_pattern1_cont2_shape2.png	2	1	2	2	1	4	0	0	0	0	0	0	0	0	0	0	0	0	1	18
81.37353515625	0.100001847449676	166653	135	1	stim01_sf1_pattern1_cont1_shape2.png	0	135	0	245.72796308151	245.82796492896	0.100001847449676	stim01_sf1_pattern1_cont1_shape2.png	1	1	1	2	1	3	0	0	0	0	0	0	0	0	0	0	0	0	1	18
81.87353515625	0.099997448760405	167677	136	2	stim02_sf1_pattern1_cont2_shape1.png	0	136	0	246.22795706997	246.327954518731	0.099997448760405	stim02_sf1_pattern1_cont2_shape1.png	1	1	2	1	1	3	0	0	0	0	0	0	0	0	0	0	0	0	1	18
82.37353515625	0.0999992082361132	168701	137	4	stim04_sf1_pattern2_cont1_shape1.png	0	137	0	246.727947832722	246.827947040958	0.0999992082361132	stim04_sf1_pattern2_cont1_shape1.png	1	2	1	1	1	1	0	0	0	0	0	0	0	0	0	0	0	0	1	18
82.87353515625	0.099995396039958	169725	138	6	stim06_sf1_pattern2_cont2_shape1.png	0	138	0	247.227940941442	247.327936337482	0.099995396039958	stim06_sf1_pattern2_cont2_shape1.png	1	2	2	1	1	1	0	0	0	0	0	0	0	0	0	0	0	0	1	18
83.37353515625	0.100022081418501	170749	139	7	stim07_sf1_pattern2_cont2_shape2.png	0	139	0	247.7279061918	247.827928273218	0.100022081418501	stim07_sf1_pattern2_cont2_shape2.png	1	2	2	2	1	1	0	0	0	0	0	0	0	0	0	0	0	0	1	18
83.87353515625	0.0999895311197179	171773	140	5	stim05_sf1_pattern2_cont1_shape2.png	0	140	0	248.227925985901	248.32791551702	0.0999895311197179	stim05_sf1_pattern2_cont1_shape2.png	1	2	1	2	1	1	0	0	0	0	0	0	0	0	0	0	0	0	1	18
84.37353515625	0.100014163779633	172797	141	8	stim08_sf2_pattern1_cont1_shape1.png	0	141	0	248.727893582225	248.827907746005	0.100014163779633	stim08_sf2_pattern1_cont1_shape1.png	2	1	1	1	1	4	0	0	0	0	0	0	0	0	0	0	0	0	1	18
84.87353515625	0.0999962757759931	173821	142	2	stim02_sf1_pattern1_cont2_shape1.png	0	142	0	249.227904285703	249.327900561479	0.0999962757759931	stim02_sf1_pattern1_cont2_shape1.png	1	1	2	1	1	3	0	0	0	0	0	0	0	0	0	0	0	0	1	18
85.37353515625	0.0999983284982591	174845	143	6	stim06_sf1_pattern2_cont2_shape1.png	0	143	0	249.727893582225	249.827891910723	0.0999983284982591	stim06_sf1_pattern2_cont2_shape1.png	1	2	2	1	1	1	0	0	0	0	0	0	0	0	0	0	0	0	1	18
85.87353515625	0.100000087973967	175869	144	12	stim12_sf2_pattern2_cont1_shape1.png	0	144	0	250.227884638225	250.327884726199	0.100000087973967	stim12_sf2_pattern2_cont1_shape1.png	2	2	1	1	1	2	0	0	0	0	0	0	0	0	0	0	0	0	1	18
86.37353515625	0.0999968622691085	176893	145	9	stim09_sf2_pattern1_cont1_shape2.png	0	145	0	250.727877453699	250.827874315968	0.0999968622691085	stim09_sf2_pattern1_cont1_shape2.png	2	1	1	2	1	4	0	0	0	0	0	0	0	0	0	0	0	0	1	18
86.87353515625	0.0999892378749792	177917	146	1	stim01_sf1_pattern1_cont1_shape2.png	0	146	0	251.227873201633	251.327862439508	0.0999892378749792	stim01_sf1_pattern1_cont1_shape2.png	1	1	1	2	1	3	0	0	0	0	0	0	0	0	0	0	0	0	1	18
87.37353515625	0.0999643119703251	178941	147	7	stim07_sf1_pattern2_cont2_shape2.png	0	147	0	251.727866896847	251.827831208817	0.0999643119703251	stim07_sf1_pattern2_cont2_shape2.png	1	2	2	2	1	1	0	0	0	0	0	0	0	0	0	0	0	0	1	18
87.87353515625	0.0999707633800426	179965	148	0	stim00_sf1_pattern1_cont1_shape1.png	0	148	0	252.227850621697	252.327821385077	0.0999707633800426	stim00_sf1_pattern1_cont1_shape1.png	1	1	1	1	1	3	0	0	0	0	0	0	0	0	0	0	0	0	1	18
88.37353515625	0.0999965690225508	180989	149	14	stim14_sf2_pattern2_cont2_shape1.png	0	149	0	252.727822616711	252.827819185733	0.0999965690225508	stim14_sf2_pattern2_cont2_shape1.png	2	2	2	1	1	2	0	0	0	0	0	0	0	0	0	0	0	0	1	18
88.87353515625	0.0999857189235627	182013	150	15	stim15_sf2_pattern2_cont2_shape2.png	0	150	0	253.227817191661	253.327802910584	0.0999857189235627	stim15_sf2_pattern2_cont2_shape2.png	2	2	2	2	1	2	0	0	0	0	0	0	0	0	0	0	0	0	1	18
89.37353515625	0.0999745755780168	183037	151	11	stim11_sf2_pattern1_cont2_shape2.png	0	151	0	253.727819391004	253.827793966582	0.0999745755780168	stim11_sf2_pattern1_cont2_shape2.png	2	1	2	2	1	4	0	0	0	0	0	0	0	0	0	0	0	0	1	18
89.87353515625	0.099983372956558	184061	152	4	stim04_sf1_pattern2_cont1_shape1.png	0	152	0	254.227801649626	254.327785022582	0.099983372956558	stim04_sf1_pattern2_cont1_shape1.png	1	2	1	1	1	1	0	0	0	0	0	0	0	0	0	0	0	0	1	18
90.37353515625	0.100022961156355	185085	153	10	stim10_sf2_pattern1_cont2_shape1.png	0	153	0	254.727780682542	254.827803643699	0.100022961156355	stim10_sf2_pattern1_cont2_shape1.png	2	1	2	1	1	4	0	0	0	0	0	0	0	0	0	0	0	0	1	18
90.87353515625	0.0999895311197179	186109	154	3	stim03_sf1_pattern1_cont2_shape2.png	0	154	0	255.227801942872	255.327791473992	0.0999895311197179	stim03_sf1_pattern1_cont2_shape2.png	1	1	2	2	1	3	0	0	0	0	0	0	0	0	0	0	0	0	1	18
91.37353515625	0.0999939298089885	187133	155	13	stim13_sf2_pattern2_cont1_shape2.png	0	155	0	255.727791825888	255.827785755697	0.0999939298089885	stim13_sf2_pattern2_cont1_shape2.png	2	2	1	2	1	2	0	0	0	0	0	0	0	0	0	0	0	0	1	18
91.87353515625	0.0999877716458286	188157	156	5	stim05_sf1_pattern2_cont1_shape2.png	0	156	0	256.227789626542	256.327777398188	0.0999877716458286	stim05_sf1_pattern2_cont1_shape2.png	1	2	1	2	1	1	0	0	0	0	0	0	0	0	0	0	0	0	1	18
92.37353515625	0.0999951027934003	189181	157	4	stim04_sf1_pattern2_cont1_shape1.png	0	157	0	256.727772764902	256.827767867695	0.0999951027934003	stim04_sf1_pattern2_cont1_shape1.png	1	2	1	1	1	1	0	0	0	0	0	0	0	0	0	0	0	0	1	18
92.87353515625	0.0999995014826709	190205	158	9	stim09_sf2_pattern1_cont1_shape2.png	0	158	0	257.227773791263	257.327773292745	0.0999995014826709	stim09_sf2_pattern1_cont1_shape2.png	2	1	1	2	1	4	0	0	0	0	0	0	0	0	0	0	0	0	1	18
93.37353515625	0.100003020434087	191229	159	14	stim14_sf2_pattern2_cont2_shape1.png	0	159	0	257.727752530933	257.827755551367	0.100003020434087	stim14_sf2_pattern2_cont2_shape1.png	2	2	2	1	1	2	0	0	0	0	0	0	0	0	0	0	0	0	1	18
93.87353515625	0.0999995014826709	192253	160	3	stim03_sf1_pattern1_cont2_shape2.png	0	160	0	258.227741240964	258.327740742447	0.0999995014826709	stim03_sf1_pattern1_cont2_shape2.png	1	1	2	2	1	3	0	0	0	0	0	0	0	0	0	0	0	0	1	18
94.37353515625	0.0999842526944121	193277	161	10	stim10_sf2_pattern1_cont2_shape1.png	0	161	0	258.727743733554	258.827727986249	0.0999842526944121	stim10_sf2_pattern1_cont2_shape1.png	2	1	2	1	1	4	0	0	0	0	0	0	0	0	0	0	0	0	1	18
94.87353515625	0.10000126095656	194301	162	15	stim15_sf2_pattern2_cont2_shape2.png	0	162	0	259.227719834013	259.327721094969	0.10000126095656	stim15_sf2_pattern2_cont2_shape2.png	2	2	2	2	1	2	0	0	0	0	0	0	0	0	0	0	0	0	1	18
95.37353515625	0.0999939298089885	195325	163	0	stim00_sf1_pattern1_cont1_shape1.png	0	163	0	259.727714115716	259.827708045525	0.0999939298089885	stim00_sf1_pattern1_cont1_shape1.png	1	1	1	1	1	3	0	0	0	0	0	0	0	0	0	0	0	0	1	18
95.873046875	0.0999971555156662	196348	164	13	stim13_sf2_pattern2_cont1_shape2.png	0	164	0	260.227703705485	260.327700861	0.0999971555156662	stim13_sf2_pattern2_cont1_shape2.png	2	2	1	2	1	2	0	0	0	0	0	0	0	0	0	0	0	0	1	18
96.373046875	0.0999989149895555	197372	165	7	stim07_sf1_pattern2_cont2_shape2.png	0	165	0	260.727693295255	260.827692210245	0.0999989149895555	stim07_sf1_pattern2_cont2_shape2.png	1	2	2	2	1	1	0	0	0	0	0	0	0	0	0	0	0	0	1	18
96.873046875	0.100001847449676	198396	166	6	stim06_sf1_pattern2_cont2_shape1.png	0	166	0	261.227685524238	261.327687371688	0.100001847449676	stim06_sf1_pattern2_cont2_shape1.png	1	2	2	1	1	1	0	0	0	0	0	0	0	0	0	0	0	0	1	18
97.373046875	0.100004193418499	199420	167	11	stim11_sf2_pattern1_cont2_shape2.png	0	167	0	261.727673941023	261.827678134441	0.100004193418499	stim11_sf2_pattern1_cont2_shape2.png	2	1	2	2	1	4	0	0	0	0	0	0	0	0	0	0	0	0	1	18
97.873046875	0.0999971555138472	200444	168	12	stim12_sf2_pattern2_cont1_shape1.png	0	168	0	262.22767027545	262.327667430964	0.0999971555138472	stim12_sf2_pattern2_cont1_shape1.png	2	2	1	1	1	2	0	0	0	0	0	0	0	0	0	0	0	0	1	18
98.373046875	0.0999962757778121	201468	169	2	stim02_sf1_pattern1_cont2_shape1.png	0	169	0	262.72766045171	262.827656727488	0.0999962757778121	stim02_sf1_pattern1_cont2_shape1.png	1	1	2	1	1	3	0	0	0	0	0	0	0	0	0	0	0	0	1	18
98.873046875	0.0999992082361132	202492	170	1	stim01_sf1_pattern1_cont1_shape2.png	0	170	0	263.22765150771	263.327650715946	0.0999992082361132	stim01_sf1_pattern1_cont1_shape2.png	1	1	1	2	1	3	0	0	0	0	0	0	0	0	0	0	0	0	1	18
99.373046875	0.0999997947274096	203516	171	8	stim08_sf2_pattern1_cont1_shape1.png	0	171	0	263.727639044759	263.827638839486	0.0999997947274096	stim08_sf2_pattern1_cont1_shape1.png	2	1	1	1	1	4	0	0	0	0	0	0	0	0	0	0	0	0	1	18
116.44775390625	0.100000087973967	238485	172	7	stim07_sf1_pattern2_cont2_shape2.png	1	0	0	280.802336700872	280.902336788846	0.100000087973967	stim07_sf1_pattern2_cont2_shape2.png	1	2	2	2	1	1	0	0	0	0	0	0	0	0	0	0	0	0	1	18
116.94775390625	0.0999889446284215	239509	173	3	stim03_sf1_pattern1_cont2_shape2.png	1	1	0	281.302331862315	281.402320806943	0.0999889446284215	stim03_sf1_pattern1_cont2_shape2.png	1	1	2	2	1	3	0	0	0	0	0	0	0	0	0	0	0	0	1	18
117.44775390625	0.0999780945294333	240533	174	10	stim10_sf2_pattern1_cont2_shape1.png	1	2	0	281.802316466903	281.902294561432	0.0999780945294333	stim10_sf2_pattern1_cont2_shape1.png	2	1	2	1	1	4	0	0	0	0	0	0	0	0	0	0	0	0	1	18
117.94775390625	0.099997448760405	241557	175	9	stim09_sf2_pattern1_cont1_shape2.png	1	3	0	282.30229549982	282.40229294858	0.099997448760405	stim09_sf2_pattern1_cont1_shape2.png	2	1	1	2	1	4	0	0	0	0	0	0	0	0	0	0	0	0	1	18
118.44775390625	0.0999971555138472	242581	176	0	stim00_sf1_pattern1_cont1_shape1.png	1	4	0	282.802271013785	282.902268169299	0.0999971555138472	stim00_sf1_pattern1_cont1_shape1.png	1	1	1	1	1	3	0	0	0	0	0	0	0	0	0	0	0	0	1	18
118.94775390625	0.0999895311197179	243605	177	5	stim05_sf1_pattern2_cont1_shape2.png	1	5	0	283.302268814439	283.402258345559	0.0999895311197179	stim05_sf1_pattern2_cont1_shape2.png	1	2	1	2	1	1	0	0	0	0	0	0	0	0	0	0	0	0	1	18
119.44775390625	0.0999458374772075	244629	178	6	stim06_sf1_pattern2_cont2_shape1.png	1	6	0	283.802260456931	283.902206294408	0.0999458374772075	stim06_sf1_pattern2_cont2_shape1.png	1	2	2	1	1	1	0	0	0	0	0	0	0	0	0	0	0	0	1	18
119.94775390625	0.0999751620693132	245653	179	12	stim12_sf2_pattern2_cont1_shape1.png	1	7	0	284.302265002243	284.402240164312	0.0999751620693132	stim12_sf2_pattern2_cont1_shape1.png	2	2	1	1	1	2	0	0	0	0	0	0	0	0	0	0	0	0	1	18
120.44775390625	0.0999496496733627	246677	180	8	stim08_sf2_pattern1_cont1_shape1.png	1	8	0	284.802258110964	284.902207760637	0.0999496496733627	stim08_sf2_pattern1_cont1_shape1.png	2	1	1	1	1	4	0	0	0	0	0	0	0	0	0	0	0	0	1	18
120.94775390625	0.0999959825312544	247701	181	13	stim13_sf2_pattern2_cont1_shape2.png	1	9	0	285.302227466764	285.402223449295	0.0999959825312544	stim13_sf2_pattern2_cont1_shape2.png	2	2	1	2	1	2	0	0	0	0	0	0	0	0	0	0	0	0	1	18
121.44775390625	0.100010938072955	248725	182	2	stim02_sf1_pattern1_cont2_shape1.png	1	10	0	285.802226733649	285.902237671722	0.100010938072955	stim02_sf1_pattern1_cont2_shape1.png	1	1	2	1	1	3	0	0	0	0	0	0	0	0	0	0	0	0	1	18
121.94775390625	0.0999921703332802	249749	183	11	stim11_sf2_pattern1_cont2_shape2.png	1	11	0	286.30224066283	286.402232833163	0.0999921703332802	stim11_sf2_pattern1_cont2_shape2.png	2	1	2	2	1	4	0	0	0	0	0	0	0	0	0	0	0	0	1	18
122.44775390625	0.0999912905954261	250773	184	1	stim01_sf1_pattern1_cont1_shape2.png	1	12	0	286.802230839092	286.902222129687	0.0999912905954261	stim01_sf1_pattern1_cont1_shape2.png	1	1	1	2	1	3	0	0	0	0	0	0	0	0	0	0	0	0	1	18
122.94775390625	0.0999933433158731	251797	185	14	stim14_sf2_pattern2_cont2_shape1.png	1	13	0	287.302217496403	287.402210839718	0.0999933433158731	stim14_sf2_pattern2_cont2_shape1.png	2	2	2	1	1	2	0	0	0	0	0	0	0	0	0	0	0	0	1	18
123.44775390625	0.0999962757759931	252821	186	4	stim04_sf1_pattern2_cont1_shape1.png	1	14	0	287.802214710566	287.902210986342	0.0999962757759931	stim04_sf1_pattern2_cont1_shape1.png	1	2	1	1	1	1	0	0	0	0	0	0	0	0	0	0	0	0	1	18
123.947265625	0.0999915838419838	253844	187	15	stim15_sf2_pattern2_cont2_shape2.png	1	15	0	288.302201954368	288.40219353821	0.0999915838419838	stim15_sf2_pattern2_cont2_shape2.png	2	2	2	2	1	2	0	0	0	0	0	0	0	0	0	0	0	0	1	18
124.447265625	0.0999455442306498	254868	188	0	stim00_sf1_pattern1_cont1_shape1.png	1	16	0	288.80218919817	288.9021347424	0.0999455442306498	stim00_sf1_pattern1_cont1_shape1.png	1	1	1	1	1	3	0	0	0	0	0	0	0	0	0	0	0	0	1	18
124.947265625	0.100002727185711	255892	189	15	stim15_sf2_pattern2_cont2_shape2.png	1	17	0	289.302183479875	289.40218620706	0.100002727185711	stim15_sf2_pattern2_cont2_shape2.png	2	2	2	2	1	2	0	0	0	0	0	0	0	0	0	0	0	0	1	18
125.447265625	0.0999945163002849	256916	190	13	stim13_sf2_pattern2_cont1_shape2.png	1	18	0	289.802170723677	289.902165239977	0.0999945163002849	stim13_sf2_pattern2_cont1_shape2.png	2	2	1	2	1	2	0	0	0	0	0	0	0	0	0	0	0	0	1	18
125.947265625	0.0999962757759931	257940	191	5	stim05_sf1_pattern2_cont1_shape2.png	1	19	0	290.302159433708	290.402155709484	0.0999962757759931	stim05_sf1_pattern2_cont1_shape2.png	1	2	1	2	1	1	0	0	0	0	0	0	0	0	0	0	0	0	1	18
126.447265625	0.0999423185257911	258964	192	9	stim09_sf2_pattern1_cont1_shape2.png	1	20	0	290.802155474887	290.902097793412	0.0999423185257911	stim09_sf2_pattern1_cont1_shape2.png	2	1	1	2	1	4	0	0	0	0	0	0	0	0	0	0	0	0	1	18
126.947265625	0.099995396039958	259988	193	7	stim07_sf1_pattern2_cont2_shape2.png	1	21	0	291.302142718689	291.402138114729	0.099995396039958	stim07_sf1_pattern2_cont2_shape2.png	1	2	2	2	1	1	0	0	0	0	0	0	0	0	0	0	0	0	1	18
127.447265625	0.100019442204939	261012	194	8	stim08_sf2_pattern1_cont1_shape1.png	1	22	0	291.802114127211	291.902133569416	0.100019442204939	stim08_sf2_pattern1_cont1_shape1.png	2	1	1	1	1	4	0	0	0	0	0	0	0	0	0	0	0	0	1	18
127.947265625	0.0999948095468426	262036	195	14	stim14_sf2_pattern2_cont2_shape1.png	1	23	0	292.30212541718	292.402120226727	0.0999948095468426	stim14_sf2_pattern2_cont2_shape1.png	2	2	2	1	1	2	0	0	0	0	0	0	0	0	0	0	0	0	1	18
128.447265625	0.100021788171944	263060	196	10	stim10_sf2_pattern1_cont2_shape1.png	1	24	0	292.802089494553	292.902111282725	0.100021788171944	stim10_sf2_pattern1_cont2_shape1.png	2	1	2	1	1	4	0	0	0	0	0	0	0	0	0	0	0	0	1	18
128.947265625	0.0999971555138472	264084	197	3	stim03_sf1_pattern1_cont2_shape2.png	1	25	0	293.302106062949	293.402103218463	0.0999971555138472	stim03_sf1_pattern1_cont2_shape2.png	1	1	2	2	1	3	0	0	0	0	0	0	0	0	0	0	0	0	1	18
129.447265625	0.0999666579373297	265108	198	6	stim06_sf1_pattern2_cont2_shape1.png	1	26	0	293.802079230945	293.902045888883	0.0999666579373297	stim06_sf1_pattern2_cont2_shape1.png	1	2	2	1	1	1	0	0	0	0	0	0	0	0	0	0	0	0	1	18
129.947265625	0.0999971555138472	266132	199	2	stim02_sf1_pattern1_cont2_shape1.png	1	27	0	294.302087881701	294.402085037214	0.0999971555138472	stim02_sf1_pattern1_cont2_shape1.png	1	1	2	1	1	3	0	0	0	0	0	0	0	0	0	0	0	0	1	18
130.447265625	0.0999358671160735	267156	200	11	stim11_sf2_pattern1_cont2_shape2.png	1	28	0	294.802079817437	294.902015684553	0.0999358671160735	stim11_sf2_pattern1_cont2_shape2.png	2	1	2	2	1	4	0	0	0	0	0	0	0	0	0	0	0	0	1	18
130.947265625	0.0999895311197179	268180	201	1	stim01_sf1_pattern1_cont1_shape2.png	1	29	0	295.30207351265	295.40206304377	0.0999895311197179	stim01_sf1_pattern1_cont1_shape2.png	1	1	1	2	1	3	0	0	0	0	0	0	0	0	0	0	0	0	1	18
131.447265625	0.0999458374772075	269204	202	12	stim12_sf2_pattern2_cont1_shape1.png	1	30	0	295.802061049697	295.902006887174	0.0999458374772075	stim12_sf2_pattern2_cont1_shape1.png	2	2	1	1	1	2	0	0	0	0	0	0	0	0	0	0	0	0	1	18
131.947265625	0.0999956892846967	270228	203	4	stim04_sf1_pattern2_cont1_shape1.png	1	31	0	296.30205181245	296.402047501735	0.0999956892846967	stim04_sf1_pattern2_cont1_shape1.png	1	2	1	1	1	1	0	0	0	0	0	0	0	0	0	0	0	0	1	18
132.447265625	0.0999983284982591	271252	204	11	stim11_sf2_pattern1_cont2_shape2.png	1	32	0	296.802044627926	296.902042956424	0.0999983284982591	stim11_sf2_pattern1_cont2_shape2.png	2	1	2	2	1	4	0	0	0	0	0	0	0	0	0	0	0	0	1	18
132.947265625	0.0999877716440096	272276	205	12	stim12_sf2_pattern2_cont1_shape1.png	1	33	0	297.302038616384	297.402026388028	0.0999877716440096	stim12_sf2_pattern2_cont1_shape1.png	2	2	1	1	1	2	0	0	0	0	0	0	0	0	0	0	0	0	1	18
133.447265625	0.0999948095468426	273300	206	8	stim08_sf2_pattern1_cont1_shape1.png	1	34	0	297.80200474648	297.901999556027	0.0999948095468426	stim08_sf2_pattern1_cont1_shape1.png	2	1	1	1	1	4	0	0	0	0	0	0	0	0	0	0	0	0	1	18
133.947265625	0.0999962757759931	274324	207	4	stim04_sf1_pattern2_cont1_shape1.png	1	35	0	298.301998441691	298.401994717467	0.0999962757759931	stim04_sf1_pattern2_cont1_shape1.png	1	2	1	1	1	1	0	0	0	0	0	0	0	0	0	0	0	0	1	18
134.447265625	0.099985425677005	275348	208	2	stim02_sf1_pattern1_cont2_shape1.png	1	36	0	298.8020067992	298.901992224877	0.099985425677005	stim02_sf1_pattern1_cont2_shape1.png	1	1	2	1	1	3	0	0	0	0	0	0	0	0	0	0	0	0	1	18
134.947265625	0.0999769215450215	276372	209	9	stim09_sf2_pattern1_cont1_shape2.png	1	37	0	299.301993163264	299.401970084809	0.0999769215450215	stim09_sf2_pattern1_cont1_shape2.png	2	1	1	2	1	4	0	0	0	0	0	0	0	0	0	0	0	0	1	18
135.447265625	0.0999308819336875	277396	210	5	stim05_sf1_pattern2_cont1_shape2.png	1	38	0	299.801986858478	299.901917740412	0.0999308819336875	stim05_sf1_pattern2_cont1_shape2.png	1	2	1	2	1	1	0	0	0	0	0	0	0	0	0	0	0	0	1	18
135.947265625	0.0999742823314591	278420	211	0	stim00_sf1_pattern1_cont1_shape1.png	1	39	0	300.301977327985	300.401951610316	0.0999742823314591	stim00_sf1_pattern1_cont1_shape1.png	1	1	1	1	1	3	0	0	0	0	0	0	0	0	0	0	0	0	1	18
136.447265625	0.0999525821316638	279444	212	1	stim01_sf1_pattern1_cont1_shape2.png	1	40	0	300.801970729952	300.901923312083	0.0999525821316638	stim01_sf1_pattern1_cont1_shape2.png	1	1	1	2	1	3	0	0	0	0	0	0	0	0	0	0	0	0	1	18
136.947265625	0.100003606925384	280468	213	6	stim06_sf1_pattern2_cont2_shape1.png	1	41	0	301.30195533454	301.401958941466	0.100003606925384	stim06_sf1_pattern2_cont2_shape1.png	1	2	2	1	1	1	0	0	0	0	0	0	0	0	0	0	0	0	1	18
137.447265625	0.0999901176110143	281492	214	13	stim13_sf2_pattern2_cont1_shape2.png	1	42	0	301.80196222582	301.901952343431	0.0999901176110143	stim13_sf2_pattern2_cont1_shape2.png	2	2	1	2	1	2	0	0	0	0	0	0	0	0	0	0	0	0	1	18
137.947265625	0.0999558078383416	282516	215	10	stim10_sf2_pattern1_cont2_shape1.png	1	43	0	302.301944484441	302.40190029228	0.0999558078383416	stim10_sf2_pattern1_cont2_shape1.png	2	1	2	1	1	4	0	0	0	0	0	0	0	0	0	0	0	0	1	18
138.447265625	0.0999429050170875	283540	216	7	stim07_sf1_pattern2_cont2_shape2.png	1	44	0	302.801941112113	302.90188401713	0.0999429050170875	stim07_sf1_pattern2_cont2_shape2.png	1	2	2	2	1	1	0	0	0	0	0	0	0	0	0	0	0	0	1	18
138.947265625	0.0999980352517014	284564	217	15	stim15_sf2_pattern2_cont2_shape2.png	1	45	0	303.301934807325	303.401932842577	0.0999980352517014	stim15_sf2_pattern2_cont2_shape2.png	2	2	2	2	1	2	0	0	0	0	0	0	0	0	0	0	0	0	1	18
139.447265625	0.099954341607372	285588	218	3	stim03_sf1_pattern1_cont2_shape2.png	1	46	0	303.801928209292	303.901882550899	0.099954341607372	stim03_sf1_pattern1_cont2_shape2.png	1	1	2	2	1	3	0	0	0	0	0	0	0	0	0	0	0	0	1	18
139.947265625	0.100000087973967	286612	219	14	stim14_sf2_pattern2_cont2_shape1.png	1	47	0	304.301903136764	304.401903224738	0.100000087973967	stim14_sf2_pattern2_cont2_shape1.png	2	2	2	1	1	2	0	0	0	0	0	0	0	0	0	0	0	0	1	18
140.447265625	0.0999660714460333	287636	220	5	stim05_sf1_pattern2_cont1_shape2.png	1	48	0	304.801900350927	304.901866422373	0.0999660714460333	stim05_sf1_pattern2_cont1_shape2.png	1	2	1	2	1	1	0	0	0	0	0	0	0	0	0	0	0	0	1	18
140.947265625	0.0999965690225508	288660	221	9	stim09_sf2_pattern1_cont1_shape2.png	1	49	0	305.301890233943	305.401886802965	0.0999965690225508	stim09_sf2_pattern1_cont1_shape2.png	2	1	1	2	1	4	0	0	0	0	0	0	0	0	0	0	0	0	1	18
141.44677734375	0.0999983284982591	289683	222	13	stim13_sf2_pattern2_cont1_shape2.png	1	50	0	305.801880703451	305.90187903195	0.0999983284982591	stim13_sf2_pattern2_cont1_shape2.png	2	2	1	2	1	2	0	0	0	0	0	0	0	0	0	0	0	0	1	18
141.94677734375	0.0999956892846967	290707	223	8	stim08_sf2_pattern1_cont1_shape1.png	1	51	0	306.301872052696	306.401867741981	0.0999956892846967	stim08_sf2_pattern1_cont1_shape1.png	2	1	1	1	1	4	0	0	0	0	0	0	0	0	0	0	0	0	1	18
142.44677734375	0.0999977420069627	291731	224	4	stim04_sf1_pattern2_cont1_shape1.png	1	52	0	306.801860762727	306.901858504734	0.0999977420069627	stim04_sf1_pattern2_cont1_shape1.png	1	2	1	1	1	1	0	0	0	0	0	0	0	0	0	0	0	0	1	18
142.94677734375	0.0999933433176921	292755	225	2	stim02_sf1_pattern1_cont2_shape1.png	1	53	0	307.301857390399	307.401850733717	0.0999933433176921	stim02_sf1_pattern1_cont2_shape1.png	1	1	2	1	1	3	0	0	0	0	0	0	0	0	0	0	0	0	1	18
143.44677734375	0.100000674465264	293779	226	6	stim06_sf1_pattern2_cont2_shape1.png	1	54	0	307.801845513939	307.901846188404	0.100000674465264	stim06_sf1_pattern2_cont2_shape1.png	1	2	2	1	1	1	0	0	0	0	0	0	0	0	0	0	0	0	1	18
143.94677734375	0.0999977420051437	294803	227	15	stim15_sf2_pattern2_cont2_shape2.png	1	55	0	308.301833930725	308.401831672731	0.0999977420051437	stim15_sf2_pattern2_cont2_shape2.png	2	2	2	2	1	2	0	0	0	0	0	0	0	0	0	0	0	0	1	18
144.44677734375	0.0999736958401627	295827	228	10	stim10_sf2_pattern1_cont2_shape1.png	1	56	0	308.801800354066	308.901774049906	0.0999736958401627	stim10_sf2_pattern1_cont2_shape1.png	2	1	2	1	1	4	0	0	0	0	0	0	0	0	0	0	0	0	1	18
144.94677734375	0.0999992082361132	296851	229	14	stim14_sf2_pattern2_cont2_shape1.png	1	57	0	309.301816922462	309.401816130698	0.0999992082361132	stim14_sf2_pattern2_cont2_shape1.png	2	2	2	1	1	2	0	0	0	0	0	0	0	0	0	0	0	0	1	18
145.44677734375	0.100001260958379	297875	230	0	stim00_sf1_pattern1_cont1_shape1.png	1	58	0	309.801805339246	309.901806600205	0.100001260958379	stim00_sf1_pattern1_cont1_shape1.png	1	1	1	1	1	3	0	0	0	0	0	0	0	0	0	0	0	0	1	18
145.94677734375	0.0999980352517014	298899	231	3	stim03_sf1_pattern1_cont2_shape2.png	1	59	0	310.301798741213	310.401796776465	0.0999980352517014	stim03_sf1_pattern1_cont2_shape2.png	1	1	2	2	1	3	0	0	0	0	0	0	0	0	0	0	0	0	1	18
146.44677734375	0.0999930500711343	299923	232	7	stim07_sf1_pattern2_cont2_shape2.png	1	60	0	310.801792729671	310.901785779743	0.0999930500711343	stim07_sf1_pattern2_cont2_shape2.png	1	2	2	2	1	1	0	0	0	0	0	0	0	0	0	0	0	0	1	18
146.94677734375	0.100003313678826	300947	233	11	stim11_sf2_pattern1_cont2_shape2.png	1	61	0	311.301776747769	311.401780061447	0.100003313678826	stim11_sf2_pattern1_cont2_shape2.png	2	1	2	2	1	4	0	0	0	0	0	0	0	0	0	0	0	0	1	18
147.44677734375	0.0999305886889488	301971	234	12	stim12_sf2_pattern2_cont1_shape1.png	1	62	0	311.801772788947	311.901703377636	0.0999305886889488	stim12_sf2_pattern2_cont1_shape1.png	2	2	1	1	1	2	0	0	0	0	0	0	0	0	0	0	0	0	1	18
147.94677734375	0.100024134138948	302995	235	1	stim01_sf1_pattern1_cont1_shape2.png	1	63	0	312.301738625798	312.401762759937	0.100024134138948	stim01_sf1_pattern1_cont1_shape2.png	1	1	1	2	1	3	0	0	0	0	0	0	0	0	0	0	0	0	1	18
148.44677734375	0.100005952892388	304019	236	8	stim08_sf2_pattern1_cont1_shape1.png	1	64	0	312.801755487439	312.901761440331	0.100005952892388	stim08_sf2_pattern1_cont1_shape1.png	2	1	1	1	1	4	0	0	0	0	0	0	0	0	0	0	0	0	1	18
148.94677734375	0.100020615189351	305043	237	9	stim09_sf2_pattern1_cont1_shape2.png	1	65	0	313.301724549992	313.401745165182	0.100020615189351	stim09_sf2_pattern1_cont1_shape2.png	2	1	1	2	1	4	0	0	0	0	0	0	0	0	0	0	0	0	1	18
149.44677734375	0.0999739890849014	306067	238	11	stim11_sf2_pattern1_cont2_shape2.png	1	66	0	313.801713846517	313.901687835601	0.0999739890849014	stim11_sf2_pattern1_cont2_shape2.png	2	1	2	2	1	4	0	0	0	0	0	0	0	0	0	0	0	0	1	18
149.94677734375	0.0999936365624308	307091	239	14	stim14_sf2_pattern2_cont2_shape1.png	1	67	0	314.301732467633	314.401726104195	0.0999936365624308	stim14_sf2_pattern2_cont2_shape1.png	2	2	2	1	1	2	0	0	0	0	0	0	0	0	0	0	0	0	1	18
150.44677734375	0.100005366399273	308115	240	10	stim10_sf2_pattern1_cont2_shape1.png	1	68	0	314.801720884419	314.901726250819	0.100005366399273	stim10_sf2_pattern1_cont2_shape1.png	2	1	2	1	1	4	0	0	0	0	0	0	0	0	0	0	0	0	1	18
150.94677734375	0.0999948095468426	309139	241	2	stim02_sf1_pattern1_cont2_shape1.png	1	69	0	315.301706075499	315.401700885046	0.0999948095468426	stim02_sf1_pattern1_cont2_shape1.png	1	1	2	1	1	3	0	0	0	0	0	0	0	0	0	0	0	0	1	18
151.44677734375	0.099968417413038	310163	242	1	stim01_sf1_pattern1_cont1_shape2.png	1	70	0	315.801698304482	315.901666721895	0.099968417413038	stim01_sf1_pattern1_cont1_shape2.png	1	1	1	2	1	3	0	0	0	0	0	0	0	0	0	0	0	0	1	18
151.94677734375	0.100014163777814	311187	243	5	stim05_sf1_pattern2_cont1_shape2.png	1	71	0	316.301667953529	316.401682117306	0.100014163777814	stim05_sf1_pattern2_cont1_shape2.png	1	2	1	2	1	1	0	0	0	0	0	0	0	0	0	0	0	0	1	18
152.44677734375	0.0999965690225508	312211	244	4	stim04_sf1_pattern2_cont1_shape1.png	1	72	0	316.801685988154	316.901682557176	0.0999965690225508	stim04_sf1_pattern2_cont1_shape1.png	1	2	1	1	1	1	0	0	0	0	0	0	0	0	0	0	0	0	1	18
152.94677734375	0.0999907041041297	313235	245	15	stim15_sf2_pattern2_cont2_shape2.png	1	73	0	317.301675577923	317.401666282027	0.0999907041041297	stim15_sf2_pattern2_cont2_shape2.png	2	2	2	2	1	2	0	0	0	0	0	0	0	0	0	0	0	0	1	18
153.44677734375	0.100002433940972	314259	246	6	stim06_sf1_pattern2_cont2_shape1.png	1	74	0	317.801667513659	317.9016699476	0.100002433940972	stim06_sf1_pattern2_cont2_shape1.png	1	2	2	1	1	1	0	0	0	0	0	0	0	0	0	0	0	0	1	18
153.94677734375	0.100010644828217	315283	247	13	stim13_sf2_pattern2_cont1_shape2.png	1	75	0	318.301658862903	318.401669507732	0.100010644828217	stim13_sf2_pattern2_cont1_shape2.png	2	2	1	2	1	2	0	0	0	0	0	0	0	0	0	0	0	0	1	18
154.44677734375	0.0999992082361132	316307	248	3	stim03_sf1_pattern1_cont2_shape2.png	1	76	0	318.801657250051	318.901656458287	0.0999992082361132	stim03_sf1_pattern1_cont2_shape2.png	1	1	2	2	1	3	0	0	0	0	0	0	0	0	0	0	0	0	1	18
154.94677734375	0.099997448760405	317331	249	7	stim07_sf1_pattern2_cont2_shape2.png	1	77	0	319.301637455952	319.401634904712	0.099997448760405	stim07_sf1_pattern2_cont2_shape2.png	1	2	2	2	1	1	0	0	0	0	0	0	0	0	0	0	0	0	1	18
155.44677734375	0.0999980352517014	318355	250	0	stim00_sf1_pattern1_cont1_shape1.png	1	78	0	319.80162645923	319.901624494481	0.0999980352517014	stim00_sf1_pattern1_cont1_shape1.png	1	1	1	1	1	3	0	0	0	0	0	0	0	0	0	0	0	0	1	18
155.94677734375	0.0999980352535204	319379	251	12	stim12_sf2_pattern2_cont1_shape1.png	1	79	0	320.301617221981	320.401615257235	0.0999980352535204	stim12_sf2_pattern2_cont1_shape1.png	2	2	1	1	1	2	0	0	0	0	0	0	0	0	0	0	0	0	1	18
156.44677734375	0.0999959825294354	320403	252	7	stim07_sf1_pattern2_cont2_shape2.png	1	80	0	320.801610330704	320.901606313233	0.0999959825294354	stim07_sf1_pattern2_cont2_shape2.png	1	2	2	2	1	1	0	0	0	0	0	0	0	0	0	0	0	0	1	18
156.94677734375	0.0999977420069627	321427	253	15	stim15_sf2_pattern2_cont2_shape2.png	1	81	0	321.30160226644	321.401600008447	0.0999977420069627	stim15_sf2_pattern2_cont2_shape2.png	2	2	2	2	1	2	0	0	0	0	0	0	0	0	0	0	0	0	1	18
157.44677734375	0.0999945163002849	322451	254	2	stim02_sf1_pattern1_cont2_shape1.png	1	82	0	321.801593029193	321.901587545493	0.0999945163002849	stim02_sf1_pattern1_cont2_shape1.png	1	1	2	1	1	3	0	0	0	0	0	0	0	0	0	0	0	0	1	18
157.94677734375	0.0999959825312544	323475	255	6	stim06_sf1_pattern2_cont2_shape1.png	1	83	0	322.301583205453	322.401579187985	0.0999959825312544	stim06_sf1_pattern2_cont2_shape1.png	1	2	2	1	1	1	0	0	0	0	0	0	0	0	0	0	0	0	1	18
158.44677734375	0.0999948095468426	324499	256	5	stim05_sf1_pattern2_cont1_shape2.png	1	84	0	322.801577193914	322.90157200346	0.0999948095468426	stim05_sf1_pattern2_cont1_shape2.png	1	2	1	2	1	1	0	0	0	0	0	0	0	0	0	0	0	0	1	18
158.9462890625	0.0999742823332781	325522	257	0	stim00_sf1_pattern1_cont1_shape1.png	1	85	0	323.301565317452	323.401539599785	0.0999742823332781	stim00_sf1_pattern1_cont1_shape1.png	1	1	1	1	1	3	0	0	0	0	0	0	0	0	0	0	0	0	1	18
159.4462890625	0.0999962757759931	326546	258	12	stim12_sf2_pattern2_cont1_shape1.png	1	86	0	323.801557253189	323.901553528965	0.0999962757759931	stim12_sf2_pattern2_cont1_shape1.png	2	2	1	1	1	2	0	0	0	0	0	0	0	0	0	0	0	0	1	18
159.9462890625	0.0999968622672895	327570	259	3	stim03_sf1_pattern1_cont2_shape2.png	1	87	0	324.301546549714	324.401543411981	0.0999968622672895	stim03_sf1_pattern1_cont2_shape2.png	1	1	2	2	1	3	0	0	0	0	0	0	0	0	0	0	0	0	1	18
160.4462890625	0.0999912905954261	328594	260	11	stim11_sf2_pattern1_cont2_shape2.png	1	88	0	324.80154347063	324.901534761226	0.0999912905954261	stim11_sf2_pattern1_cont2_shape2.png	2	1	2	2	1	4	0	0	0	0	0	0	0	0	0	0	0	0	1	18
160.9462890625	0.0999912905972451	329618	261	14	stim14_sf2_pattern2_cont2_shape1.png	1	89	0	325.301531300924	325.401522591521	0.0999912905972451	stim14_sf2_pattern2_cont2_shape1.png	2	2	2	1	1	2	0	0	0	0	0	0	0	0	0	0	0	0	1	18
161.4462890625	0.0999980352517014	330642	262	4	stim04_sf1_pattern2_cont1_shape1.png	1	90	0	325.801520010957	325.901518046208	0.0999980352517014	stim04_sf1_pattern2_cont1_shape1.png	1	2	1	1	1	1	0	0	0	0	0	0	0	0	0	0	0	0	1	18
161.9462890625	0.0999942230555462	331666	263	8	stim08_sf2_pattern1_cont1_shape1.png	1	91	0	326.301513119677	326.401507342733	0.0999942230555462	stim08_sf2_pattern1_cont1_shape1.png	2	1	1	1	1	4	0	0	0	0	0	0	0	0	0	0	0	0	1	18
162.4462890625	0.0999951027934003	332690	264	13	stim13_sf2_pattern2_cont1_shape2.png	1	92	0	326.801501536462	326.901496639255	0.0999951027934003	stim13_sf2_pattern2_cont1_shape2.png	2	2	1	2	1	2	0	0	0	0	0	0	0	0	0	0	0	0	1	18
162.9462890625	0.100001847449676	333714	265	1	stim01_sf1_pattern1_cont1_shape2.png	1	93	0	327.301489660002	327.401491507451	0.100001847449676	stim01_sf1_pattern1_cont1_shape2.png	1	1	1	2	1	3	0	0	0	0	0	0	0	0	0	0	0	0	1	18
163.4462890625	0.0999170993763983	334738	266	10	stim10_sf2_pattern1_cont2_shape1.png	1	94	0	327.801504468922	327.901421568298	0.0999170993763983	stim10_sf2_pattern1_cont2_shape1.png	2	1	2	1	1	4	0	0	0	0	0	0	0	0	0	0	0	0	1	18
163.9462890625	0.100013577286518	335762	267	9	stim09_sf2_pattern1_cont1_shape2.png	1	95	0	328.301459162425	328.401472739712	0.100013577286518	stim09_sf2_pattern1_cont1_shape2.png	2	1	1	2	1	4	0	0	0	0	0	0	0	0	0	0	0	0	1	18
164.4462890625	0.100001554203118	336786	268	14	stim14_sf2_pattern2_cont2_shape1.png	1	96	0	328.801444353507	328.90144590771	0.100001554203118	stim14_sf2_pattern2_cont2_shape1.png	2	2	2	1	1	2	0	0	0	0	0	0	0	0	0	0	0	0	1	18
164.9462890625	0.0999754553158709	337810	269	13	stim13_sf2_pattern2_cont1_shape2.png	1	97	0	329.301459162425	329.401434617741	0.0999754553158709	stim13_sf2_pattern2_cont1_shape2.png	2	2	1	2	1	2	0	0	0	0	0	0	0	0	0	0	0	0	1	18
165.4462890625	0.0999760418071673	338834	270	2	stim02_sf1_pattern1_cont2_shape1.png	1	98	0	329.801449631934	329.901425673741	0.0999760418071673	stim02_sf1_pattern1_cont2_shape1.png	1	1	2	1	1	3	0	0	0	0	0	0	0	0	0	0	0	0	1	18
165.9462890625	0.0999475969510968	339858	271	8	stim08_sf2_pattern1_cont1_shape1.png	1	99	0	330.301463854361	330.401411451312	0.0999475969510968	stim08_sf2_pattern1_cont1_shape1.png	2	1	1	1	1	4	0	0	0	0	0	0	0	0	0	0	0	0	1	18
166.4462890625	0.0999772147915792	340882	272	1	stim01_sf1_pattern1_cont1_shape2.png	1	100	0	330.80142529252	330.901402507312	0.0999772147915792	stim01_sf1_pattern1_cont1_shape2.png	1	1	1	2	1	3	0	0	0	0	0	0	0	0	0	0	0	0	1	18
166.9462890625	0.0999951027915813	341906	273	12	stim12_sf2_pattern2_cont1_shape1.png	1	101	0	331.301397580781	331.401392683572	0.0999951027915813	stim12_sf2_pattern2_cont1_shape1.png	2	2	1	1	1	2	0	0	0	0	0	0	0	0	0	0	0	0	1	18
167.4462890625	0.10000419341668	342930	274	5	stim05_sf1_pattern2_cont1_shape2.png	1	102	0	331.801387757041	331.901391950458	0.10000419341668	stim05_sf1_pattern2_cont1_shape2.png	1	2	1	2	1	1	0	0	0	0	0	0	0	0	0	0	0	0	1	18
167.9462890625	0.0999936365624308	343954	275	6	stim06_sf1_pattern2_cont2_shape1.png	1	103	0	332.301409310618	332.40140294718	0.0999936365624308	stim06_sf1_pattern2_cont2_shape1.png	1	2	2	1	1	1	0	0	0	0	0	0	0	0	0	0	0	0	1	18
168.4462890625	0.0999408522948215	344978	276	15	stim15_sf2_pattern2_cont2_shape2.png	1	104	0	332.801398607142	332.901339459437	0.0999408522948215	stim15_sf2_pattern2_cont2_shape2.png	2	2	2	2	1	2	0	0	0	0	0	0	0	0	0	0	0	0	1	18
168.9462890625	0.100000674465264	346002	277	3	stim03_sf1_pattern1_cont2_shape2.png	1	105	0	333.301387317173	333.401387991638	0.100000674465264	stim03_sf1_pattern1_cont2_shape2.png	1	1	2	2	1	3	0	0	0	0	0	0	0	0	0	0	0	0	1	18
169.4462890625	0.0999939298108075	347026	278	0	stim00_sf1_pattern1_cont1_shape1.png	1	106	0	333.801385117828	333.901379047638	0.0999939298108075	stim00_sf1_pattern1_cont1_shape1.png	1	1	1	1	1	3	0	0	0	0	0	0	0	0	0	0	0	0	1	18
169.9462890625	0.0999980352517014	348050	279	11	stim11_sf2_pattern1_cont2_shape2.png	1	107	0	334.301376173828	334.401374209079	0.0999980352517014	stim11_sf2_pattern1_cont2_shape2.png	2	1	2	2	1	4	0	0	0	0	0	0	0	0	0	0	0	0	1	18
170.4462890625	0.0999930500711343	349074	280	4	stim04_sf1_pattern2_cont1_shape1.png	1	108	0	334.80135696622	334.901350016291	0.0999930500711343	stim04_sf1_pattern2_cont1_shape1.png	1	2	1	1	1	1	0	0	0	0	0	0	0	0	0	0	0	0	1	18
170.9462890625	0.0999983284982591	350098	281	9	stim09_sf2_pattern1_cont1_shape2.png	1	109	0	335.301348022218	335.401346350716	0.0999983284982591	stim09_sf2_pattern1_cont1_shape2.png	2	1	1	2	1	4	0	0	0	0	0	0	0	0	0	0	0	0	1	18
171.4462890625	0.0999951027934003	351122	282	10	stim10_sf2_pattern1_cont2_shape1.png	1	110	0	335.801340544447	335.901335647241	0.0999951027934003	stim10_sf2_pattern1_cont2_shape1.png	2	1	2	1	1	4	0	0	0	0	0	0	0	0	0	0	0	0	1	18
171.9462890625	0.100019735451497	352146	283	7	stim07_sf1_pattern2_cont2_shape2.png	1	111	0	336.30130462182	336.401324357272	0.100019735451497	stim07_sf1_pattern2_cont2_shape2.png	1	2	2	2	1	1	0	0	0	0	0	0	0	0	0	0	0	0	1	18
172.4462890625	0.099949356428624	353170	284	9	stim09_sf2_pattern1_cont1_shape2.png	1	112	0	336.801320603723	336.901269960152	0.099949356428624	stim09_sf2_pattern1_cont1_shape2.png	2	1	1	2	1	4	0	0	0	0	0	0	0	0	0	0	0	0	1	18
172.9462890625	0.0999968622691085	354194	285	5	stim05_sf1_pattern2_cont1_shape2.png	1	113	0	337.301312832706	337.401309694975	0.0999968622691085	stim05_sf1_pattern2_cont1_shape2.png	1	2	1	2	1	1	0	0	0	0	0	0	0	0	0	0	0	0	1	18
173.4462890625	0.100000087973967	355218	286	10	stim10_sf2_pattern1_cont2_shape1.png	1	114	0	337.801302422477	337.90130251045	0.100000087973967	stim10_sf2_pattern1_cont2_shape1.png	2	1	2	1	1	4	0	0	0	0	0	0	0	0	0	0	0	0	1	18
173.9462890625	0.0999997947274096	356242	287	3	stim03_sf1_pattern1_cont2_shape2.png	1	115	0	338.301294651459	338.401294446187	0.0999997947274096	stim03_sf1_pattern1_cont2_shape2.png	1	1	2	2	1	3	0	0	0	0	0	0	0	0	0	0	0	0	1	18
174.4462890625	0.0999308819336875	357266	288	2	stim02_sf1_pattern1_cont2_shape1.png	1	116	0	338.801281602015	338.901212483948	0.0999308819336875	stim02_sf1_pattern1_cont2_shape1.png	1	1	2	1	1	3	0	0	0	0	0	0	0	0	0	0	0	0	1	18
174.9462890625	0.0999965690225508	358290	289	7	stim07_sf1_pattern2_cont2_shape2.png	1	117	0	339.301275590473	339.401272159495	0.0999965690225508	stim07_sf1_pattern2_cont2_shape2.png	1	2	2	2	1	1	0	0	0	0	0	0	0	0	0	0	0	0	1	18
175.4462890625	0.0999475969529158	359314	290	11	stim11_sf2_pattern1_cont2_shape2.png	1	118	0	339.801268699193	339.901216296146	0.0999475969529158	stim11_sf2_pattern1_cont2_shape2.png	2	1	2	2	1	4	0	0	0	0	0	0	0	0	0	0	0	0	1	18
175.9462890625	0.0999992082361132	360338	291	1	stim01_sf1_pattern1_cont1_shape2.png	1	119	0	340.301256529488	340.401255737725	0.0999992082361132	stim01_sf1_pattern1_cont1_shape2.png	1	1	1	2	1	3	0	0	0	0	0	0	0	0	0	0	0	0	1	18
176.44580078125	0.0999725228557509	361361	292	4	stim04_sf1_pattern2_cont1_shape1.png	1	120	0	340.801257262603	340.901229785459	0.0999725228557509	stim04_sf1_pattern2_cont1_shape1.png	1	2	1	1	1	1	0	0	0	0	0	0	0	0	0	0	0	0	1	18
176.94580078125	0.0999971555138472	362385	293	6	stim06_sf1_pattern2_cont2_shape1.png	1	121	0	341.301240107716	341.40123726323	0.0999971555138472	stim06_sf1_pattern2_cont2_shape1.png	1	2	2	1	1	1	0	0	0	0	0	0	0	0	0	0	0	0	1	18
177.44580078125	0.0999772147915792	363409	294	12	stim12_sf2_pattern2_cont1_shape1.png	1	122	0	341.801233802928	341.901211017719	0.0999772147915792	stim12_sf2_pattern2_cont1_shape1.png	2	2	1	1	1	2	0	0	0	0	0	0	0	0	0	0	0	0	1	18
177.94580078125	0.0999968622691085	364433	295	14	stim14_sf2_pattern2_cont2_shape1.png	1	123	0	342.301221339976	342.401218202245	0.0999968622691085	stim14_sf2_pattern2_cont2_shape1.png	2	2	2	1	1	2	0	0	0	0	0	0	0	0	0	0	0	0	1	18
178.44580078125	0.0999657781994756	365457	296	0	stim00_sf1_pattern1_cont1_shape1.png	1	124	0	342.801211809483	342.901177587682	0.0999657781994756	stim00_sf1_pattern1_cont1_shape1.png	1	1	1	1	1	3	0	0	0	0	0	0	0	0	0	0	0	0	1	18
178.94580078125	0.100020028696235	366481	297	8	stim08_sf2_pattern1_cont1_shape1.png	1	125	0	343.301181751776	343.401201780473	0.100020028696235	stim08_sf2_pattern1_cont1_shape1.png	2	1	1	1	1	4	0	0	0	0	0	0	0	0	0	0	0	0	1	18
179.44580078125	0.0999769215450215	367505	298	13	stim13_sf2_pattern2_cont1_shape2.png	1	126	0	343.801189816038	343.901166737583	0.0999769215450215	stim13_sf2_pattern2_cont1_shape2.png	2	2	1	2	1	2	0	0	0	0	0	0	0	0	0	0	0	0	1	18
179.94580078125	0.0999977420069627	368529	299	15	stim15_sf2_pattern2_cont2_shape2.png	1	127	0	344.301160638068	344.401158380075	0.0999977420069627	stim15_sf2_pattern2_cont2_shape2.png	2	2	2	2	1	2	0	0	0	0	0	0	0	0	0	0	0	0	1	18
180.44580078125	0.0999256035065628	369553	300	8	stim08_sf2_pattern1_cont1_shape1.png	1	128	0	344.801178379448	344.901103982955	0.0999256035065628	stim08_sf2_pattern1_cont1_shape1.png	2	1	1	1	1	4	0	0	0	0	0	0	0	0	0	0	0	0	1	18
180.94580078125	0.0999895311197179	370577	301	13	stim13_sf2_pattern2_cont1_shape2.png	1	129	0	345.301172367906	345.401161899026	0.0999895311197179	stim13_sf2_pattern2_cont1_shape2.png	2	2	1	2	1	2	0	0	0	0	0	0	0	0	0	0	0	0	1	18
181.44580078125	0.0999786810207297	371601	302	4	stim04_sf1_pattern2_cont1_shape1.png	1	130	0	345.801153453544	345.901132134564	0.0999786810207297	stim04_sf1_pattern2_cont1_shape1.png	1	2	1	1	1	1	0	0	0	0	0	0	0	0	0	0	0	0	1	18
181.94580078125	0.0999889446284215	372625	303	15	stim15_sf2_pattern2_cont2_shape2.png	1	131	0	346.301133659443	346.401122604071	0.0999889446284215	stim15_sf2_pattern2_cont2_shape2.png	2	2	2	2	1	2	0	0	0	0	0	0	0	0	0	0	0	0	1	18
182.44580078125	0.0999692971527111	373649	304	9	stim09_sf2_pattern1_cont1_shape2.png	1	132	0	346.801147002132	346.901116299285	0.0999692971527111	stim09_sf2_pattern1_cont1_shape2.png	2	1	1	2	1	4	0	0	0	0	0	0	0	0	0	0	0	0	1	18
182.94580078125	0.100004779907977	374673	305	0	stim00_sf1_pattern1_cont1_shape1.png	1	133	0	347.301117824163	347.401122604071	0.100004779907977	stim00_sf1_pattern1_cont1_shape1.png	1	1	1	1	1	3	0	0	0	0	0	0	0	0	0	0	0	0	1	18
183.44580078125	0.0999778012828756	375697	306	14	stim14_sf2_pattern2_cont2_shape1.png	1	134	0	347.801110932884	347.901088734166	0.0999778012828756	stim14_sf2_pattern2_cont2_shape1.png	2	2	2	1	1	2	0	0	0	0	0	0	0	0	0	0	0	0	1	18
183.94580078125	0.0999927568263956	376721	307	5	stim05_sf1_pattern2_cont1_shape2.png	1	135	0	348.301122516097	348.401115272924	0.0999927568263956	stim05_sf1_pattern2_cont1_shape2.png	1	2	1	2	1	1	0	0	0	0	0	0	0	0	0	0	0	0	1	18
184.44580078125	0.0999983284982591	377745	308	3	stim03_sf1_pattern1_cont2_shape2.png	1	136	0	348.801103015243	348.901101343741	0.0999983284982591	stim03_sf1_pattern1_cont2_shape2.png	1	1	2	2	1	3	0	0	0	0	0	0	0	0	0	0	0	0	1	18
184.94580078125	0.0999962757759931	378769	309	10	stim10_sf2_pattern1_cont2_shape1.png	1	137	0	349.301105214588	349.401101490364	0.0999962757759931	stim10_sf2_pattern1_cont2_shape1.png	2	1	2	1	1	4	0	0	0	0	0	0	0	0	0	0	0	0	1	18
185.44580078125	0.0999915838419838	379793	310	8	stim08_sf2_pattern1_cont1_shape1.png	1	138	1	349.801091285406	349.901082869248	0.0999915838419838	stim08_sf2_pattern1_cont1_shape1.png	2	1	1	1	1	4	0	0	0	0	0	0	0	0	0	0	0	0	1	18
185.94580078125	0.0999956892846967	380817	311	8	stim08_sf2_pattern1_cont1_shape1.png	1	139	1	350.301075596748	350.401071286033	0.0999956892846967	stim08_sf2_pattern1_cont1_shape1.png	2	1	1	1	1	4	0	0	0	0	0	0	0	0	0	0	0	0	1	18
186.44580078125	0.0999687106595957	381841	312	1	stim01_sf1_pattern1_cont1_shape2.png	1	140	2	350.801077796094	350.901046506753	0.0999687106595957	stim01_sf1_pattern1_cont1_shape2.png	1	1	1	2	1	3	0	0	0	0	0	0	0	0	0	0	0	0	1	18
186.94580078125	0.0999983284982591	382865	313	4	stim04_sf1_pattern2_cont1_shape1.png	1	141	2	351.301056829008	351.401055157507	0.0999983284982591	stim04_sf1_pattern2_cont1_shape1.png	1	2	1	1	1	1	0	0	0	0	0	0	0	0	0	0	0	0	1	18
187.44580078125	0.0999311751802452	383889	314	7	stim07_sf1_pattern2_cont2_shape2.png	1	142	0	351.80104700527	351.900978180451	0.0999311751802452	stim07_sf1_pattern2_cont2_shape2.png	1	2	2	2	1	1	0	0	0	0	0	0	0	0	0	0	0	0	1	18
187.94580078125	0.100020615189351	384913	315	1	stim01_sf1_pattern1_cont1_shape2.png	1	143	0	352.301019586776	352.401040201965	0.100020615189351	stim01_sf1_pattern1_cont1_shape2.png	1	1	1	2	1	3	0	0	0	0	0	0	0	0	0	0	0	0	1	18
188.44580078125	0.0999956892846967	385937	316	11	stim11_sf2_pattern1_cont2_shape2.png	1	144	0	352.801031169991	352.901026859276	0.0999956892846967	stim11_sf2_pattern1_cont2_shape2.png	2	1	2	2	1	4	0	0	0	0	0	0	0	0	0	0	0	0	1	18
188.94580078125	0.0999995014826709	386961	317	12	stim12_sf2_pattern2_cont1_shape1.png	1	145	0	353.301019586776	353.401019088258	0.0999995014826709	stim12_sf2_pattern2_cont1_shape1.png	2	2	1	1	1	2	0	0	0	0	0	0	0	0	0	0	0	0	1	18
189.44580078125	0.0999578605606075	387985	318	6	stim06_sf1_pattern2_cont2_shape1.png	1	146	0	353.801020613137	353.900978473697	0.0999578605606075	stim06_sf1_pattern2_cont2_shape1.png	1	2	2	1	1	1	0	0	0	0	0	0	0	0	0	0	0	0	1	18
189.94580078125	0.0999930500711343	389009	319	2	stim02_sf1_pattern1_cont2_shape1.png	1	147	0	354.301008150185	354.401001200256	0.0999930500711343	stim02_sf1_pattern1_cont2_shape1.png	1	1	2	1	1	3	0	0	0	0	0	0	0	0	0	0	0	0	1	18
190.44580078125	0.0999338143919886	390033	320	5	stim05_sf1_pattern2_cont1_shape2.png	1	148	0	354.800991288545	354.900925102937	0.0999338143919886	stim05_sf1_pattern2_cont1_shape2.png	1	2	1	2	1	1	0	0	0	0	0	0	0	0	0	0	0	0	1	18
190.94580078125	0.0999951027915813	391057	321	11	stim11_sf2_pattern1_cont2_shape2.png	1	149	0	355.300986156741	355.400981259532	0.0999951027915813	stim11_sf2_pattern1_cont2_shape2.png	2	1	2	2	1	4	0	0	0	0	0	0	0	0	0	0	0	0	1	18
191.44580078125	0.0999757485624286	392081	322	4	stim04_sf1_pattern2_cont1_shape1.png	1	150	0	355.800976333001	355.900952081563	0.0999757485624286	stim04_sf1_pattern2_cont1_shape1.png	1	2	1	1	1	1	0	0	0	0	0	0	0	0	0	0	0	0	1	18
191.94580078125	0.0999965690225508	393105	323	7	stim07_sf1_pattern2_cont2_shape2.png	1	151	0	356.300966802508	356.40096337153	0.0999965690225508	stim07_sf1_pattern2_cont2_shape2.png	1	2	2	2	1	1	0	0	0	0	0	0	0	0	0	0	0	0	1	18
192.44580078125	0.100006539385504	394129	324	12	stim12_sf2_pattern2_cont1_shape1.png	1	152	0	356.800922668996	356.900929208381	0.100006539385504	stim12_sf2_pattern2_cont1_shape1.png	2	2	1	1	1	2	0	0	0	0	0	0	0	0	0	0	0	0	1	18
192.94580078125	0.0999692971508921	395153	325	14	stim14_sf2_pattern2_cont2_shape1.png	1	153	0	357.300949207753	357.400918504904	0.0999692971508921	stim14_sf2_pattern2_cont2_shape1.png	2	2	2	1	1	2	0	0	0	0	0	0	0	0	0	0	0	0	1	18
193.4453125	0.0999267764909746	396176	326	1	stim01_sf1_pattern1_cont1_shape2.png	1	154	0	357.800942316473	357.900869092964	0.0999267764909746	stim01_sf1_pattern1_cont1_shape2.png	1	1	1	2	1	3	0	0	0	0	0	0	0	0	0	0	0	0	1	18
193.9453125	0.0999959825294354	397200	327	6	stim06_sf1_pattern2_cont2_shape1.png	1	155	0	358.300931612997	358.400927595527	0.0999959825294354	stim06_sf1_pattern2_cont2_shape1.png	1	2	2	1	1	1	0	0	0	0	0	0	0	0	0	0	0	0	1	18
194.4453125	0.0999722296110122	398224	328	9	stim09_sf2_pattern1_cont1_shape2.png	1	156	0	358.800923548733	358.900895778344	0.0999722296110122	stim09_sf2_pattern1_cont1_shape2.png	2	1	1	2	1	4	0	0	0	0	0	0	0	0	0	0	0	0	1	18
194.9453125	0.099995396039958	399248	329	3	stim03_sf1_pattern1_cont2_shape2.png	1	157	0	359.300895543747	359.400890939787	0.099995396039958	stim03_sf1_pattern1_cont2_shape2.png	1	1	2	2	1	3	0	0	0	0	0	0	0	0	0	0	0	0	1	18
195.4453125	0.0999860121701204	400272	330	2	stim02_sf1_pattern1_cont2_shape1.png	1	158	0	359.800886892992	359.900872905162	0.0999860121701204	stim02_sf1_pattern1_cont2_shape1.png	1	1	2	1	1	3	0	0	0	0	0	0	0	0	0	0	0	0	1	18
195.9453125	0.0999962757759931	401296	331	0	stim00_sf1_pattern1_cont1_shape1.png	1	159	0	360.300870324598	360.400866600374	0.0999962757759931	stim00_sf1_pattern1_cont1_shape1.png	1	1	1	1	1	3	0	0	0	0	0	0	0	0	0	0	0	0	1	18
196.4453125	0.0999780945276143	402320	332	13	stim13_sf2_pattern2_cont1_shape2.png	1	160	0	360.800860207613	360.900838302141	0.0999780945276143	stim13_sf2_pattern2_cont1_shape2.png	2	2	1	2	1	2	0	0	0	0	0	0	0	0	0	0	0	0	1	18
196.9453125	0.0999951027934003	403344	333	10	stim10_sf2_pattern1_cont2_shape1.png	1	161	0	361.300852143349	361.400847246143	0.0999951027934003	stim10_sf2_pattern1_cont2_shape1.png	2	1	2	1	1	4	0	0	0	0	0	0	0	0	0	0	0	0	1	18
197.4453125	0.099997448760405	404368	334	8	stim08_sf2_pattern1_cont1_shape1.png	1	162	0	361.800848771021	361.900846219782	0.099997448760405	stim08_sf2_pattern1_cont1_shape1.png	2	1	1	1	1	4	0	0	0	0	0	0	0	0	0	0	0	0	1	18
197.9453125	0.100008298859393	405392	335	15	stim15_sf2_pattern2_cont2_shape2.png	1	163	0	362.300838067546	362.400846366405	0.100008298859393	stim15_sf2_pattern2_cont2_shape2.png	2	2	2	2	1	2	0	0	0	0	0	0	0	0	0	0	0	0	1	18
207.0283203125	0.0999798540051415	423994	336	11	stim11_sf2_pattern1_cont2_shape2.png	2	0	0	371.384045134067	371.484024988073	0.0999798540051415	stim11_sf2_pattern1_cont2_shape2.png	2	1	2	2	1	4	0	0	0	0	0	0	0	0	0	0	0	0	1	18
207.5283203125	0.0999980352517014	425018	337	3	stim03_sf1_pattern1_cont2_shape2.png	2	1	0	371.884017422328	371.98401545758	0.0999980352517014	stim03_sf1_pattern1_cont2_shape2.png	1	1	2	2	1	3	0	0	0	0	0	0	0	0	0	0	0	0	1	18
208.0283203125	0.0999877716458286	426042	338	2	stim02_sf1_pattern1_cont2_shape1.png	2	2	0	372.384015516229	372.484003287875	0.0999877716458286	stim02_sf1_pattern1_cont2_shape1.png	1	1	2	1	1	3	0	0	0	0	0	0	0	0	0	0	0	0	1	18
208.5283203125	0.0999522888869251	427066	339	9	stim09_sf2_pattern1_cont1_shape2.png	2	3	0	372.884001000555	372.983953289442	0.0999522888869251	stim09_sf2_pattern1_cont1_shape2.png	2	1	1	2	1	4	0	0	0	0	0	0	0	0	0	0	0	0	1	18
209.0283203125	0.0999942230555462	428090	340	10	stim10_sf2_pattern1_cont2_shape1.png	2	4	0	373.383993229538	373.483987452593	0.0999942230555462	stim10_sf2_pattern1_cont2_shape1.png	2	1	2	1	1	4	0	0	0	0	0	0	0	0	0	0	0	0	1	18
209.5283203125	0.0999942230555462	429114	341	0	stim00_sf1_pattern1_cont1_shape1.png	2	5	0	373.883983112553	373.983977335609	0.0999942230555462	stim00_sf1_pattern1_cont1_shape1.png	1	1	1	1	1	3	0	0	0	0	0	0	0	0	0	0	0	0	1	18
210.0283203125	0.100000674465264	430138	342	8	stim08_sf2_pattern1_cont1_shape1.png	2	6	0	374.383971236093	374.483971910558	0.100000674465264	stim08_sf2_pattern1_cont1_shape1.png	2	1	1	1	1	4	0	0	0	0	0	0	0	0	0	0	0	0	1	18
210.5283203125	0.100002140694414	431162	343	5	stim05_sf1_pattern2_cont1_shape2.png	2	7	0	374.883955547437	374.983957688131	0.100002140694414	stim05_sf1_pattern2_cont1_shape2.png	1	2	1	2	1	1	0	0	0	0	0	0	0	0	0	0	0	0	1	18
211.0283203125	0.0999907041041297	432186	344	12	stim12_sf2_pattern2_cont1_shape1.png	2	8	0	375.383954521076	375.48394522518	0.0999907041041297	stim12_sf2_pattern2_cont1_shape1.png	2	2	1	1	1	2	0	0	0	0	0	0	0	0	0	0	0	0	1	18
211.5283203125	0.0999989149895555	433210	345	4	stim04_sf1_pattern2_cont1_shape1.png	2	9	0	375.883944404091	375.983943319081	0.0999989149895555	stim04_sf1_pattern2_cont1_shape1.png	1	2	1	1	1	1	0	0	0	0	0	0	0	0	0	0	0	0	1	18
212.0283203125	0.0999995014826709	434234	346	1	stim01_sf1_pattern1_cont1_shape2.png	2	10	0	376.38393399386	376.483933495343	0.0999995014826709	stim01_sf1_pattern1_cont1_shape2.png	1	1	1	2	1	3	0	0	0	0	0	0	0	0	0	0	0	0	1	18
212.5283203125	0.100005366399273	435258	347	13	stim13_sf2_pattern2_cont1_shape2.png	2	11	0	376.883926809336	376.983932175735	0.100005366399273	stim13_sf2_pattern2_cont1_shape2.png	2	2	1	2	1	2	0	0	0	0	0	0	0	0	0	0	0	0	1	18
213.0283203125	0.100003606925384	436282	348	7	stim07_sf1_pattern2_cont2_shape2.png	2	12	0	377.383916399105	377.483920006031	0.100003606925384	stim07_sf1_pattern2_cont2_shape2.png	1	2	2	2	1	1	0	0	0	0	0	0	0	0	0	0	0	0	1	18
213.5283203125	0.0999968622691085	437306	349	6	stim06_sf1_pattern2_cont2_shape1.png	2	13	0	377.883910094317	377.983906956586	0.0999968622691085	stim06_sf1_pattern2_cont2_shape1.png	1	2	2	1	1	1	0	0	0	0	0	0	0	0	0	0	0	0	1	18
214.0283203125	0.099997448760405	438330	350	15	stim15_sf2_pattern2_cont2_shape2.png	2	14	0	378.383899390841	378.483896839602	0.099997448760405	stim15_sf2_pattern2_cont2_shape2.png	2	2	2	2	1	2	0	0	0	0	0	0	0	0	0	0	0	0	1	18
214.5283203125	0.0999877716458286	439354	351	14	stim14_sf2_pattern2_cont2_shape1.png	2	15	0	378.883896311758	378.983884083404	0.0999877716458286	stim14_sf2_pattern2_cont2_shape1.png	2	2	2	1	1	2	0	0	0	0	0	0	0	0	0	0	0	0	1	18
215.0283203125	0.0999889446284215	440378	352	5	stim05_sf1_pattern2_cont1_shape2.png	2	16	0	379.383886194773	379.483875139402	0.0999889446284215	stim05_sf1_pattern2_cont1_shape2.png	1	2	1	2	1	1	0	0	0	0	0	0	0	0	0	0	0	0	1	18
215.5283203125	0.0999370400986663	441402	353	11	stim11_sf2_pattern1_cont2_shape2.png	2	17	0	379.883873438575	379.983810478674	0.0999370400986663	stim11_sf2_pattern1_cont2_shape2.png	2	1	2	2	1	4	0	0	0	0	0	0	0	0	0	0	0	0	1	18
216.0283203125	0.0999892378731602	442426	354	2	stim02_sf1_pattern1_cont2_shape1.png	2	18	0	380.383867133789	380.483856371662	0.0999892378731602	stim02_sf1_pattern1_cont2_shape1.png	1	1	2	1	1	3	0	0	0	0	0	0	0	0	0	0	0	0	1	18
216.5283203125	0.10002384089421	443450	355	0	stim00_sf1_pattern1_cont1_shape1.png	2	19	0	380.88382915844	380.983852999334	0.10002384089421	stim00_sf1_pattern1_cont1_shape1.png	1	1	1	1	1	3	0	0	0	0	0	0	0	0	0	0	0	0	1	18
217.0283203125	0.0999951027934003	444474	356	10	stim10_sf2_pattern1_cont2_shape1.png	2	20	1	381.383842207884	381.483837310678	0.0999951027934003	stim10_sf2_pattern1_cont2_shape1.png	2	1	2	1	1	4	0	0	0	0	0	0	0	0	0	0	0	0	1	18
217.5283203125	0.100005952892388	445498	357	10	stim10_sf2_pattern1_cont2_shape1.png	2	21	1	381.883822120539	381.983828073431	0.100005952892388	stim10_sf2_pattern1_cont2_shape1.png	2	1	2	1	1	4	0	0	0	0	0	0	0	0	0	0	0	0	1	18
218.0283203125	0.10002530712336	446522	358	4	stim04_sf1_pattern2_cont1_shape1.png	2	22	2	382.383803499422	382.483828806546	0.10002530712336	stim04_sf1_pattern2_cont1_shape1.png	1	2	1	1	1	1	0	0	0	0	0	0	0	0	0	0	0	0	1	18
218.5283203125	0.100003900171941	447546	359	5	stim05_sf1_pattern2_cont1_shape2.png	2	23	2	382.883793675683	382.983797575855	0.100003900171941	stim05_sf1_pattern2_cont1_shape2.png	1	2	1	2	1	1	0	0	0	0	0	0	0	0	0	0	0	0	1	18
219.0283203125	0.0999956892846967	448570	360	14	stim14_sf2_pattern2_cont2_shape1.png	2	24	0	383.383813176537	383.483808865822	0.0999956892846967	stim14_sf2_pattern2_cont2_shape1.png	2	2	2	1	1	2	0	0	0	0	0	0	0	0	0	0	0	0	1	18
219.5283203125	0.100047300569713	449594	361	8	stim08_sf2_pattern1_cont1_shape1.png	2	25	0	383.883774907943	383.983822208513	0.100047300569713	stim08_sf2_pattern1_cont1_shape1.png	2	1	1	1	1	4	0	0	0	0	0	0	0	0	0	0	0	0	1	18
220.0283203125	0.0999839594478544	450618	362	12	stim12_sf2_pattern2_cont1_shape1.png	2	26	0	384.383802912929	384.483786872377	0.0999839594478544	stim12_sf2_pattern2_cont1_shape1.png	2	2	1	1	1	2	0	0	0	0	0	0	0	0	0	0	0	0	1	18
220.5283203125	0.0999816134808498	451642	363	15	stim15_sf2_pattern2_cont2_shape2.png	2	27	0	384.883787517518	384.983769130999	0.0999816134808498	stim15_sf2_pattern2_cont2_shape2.png	2	2	2	2	1	2	0	0	0	0	0	0	0	0	0	0	0	0	1	18
221.0283203125	0.099997448760405	452666	364	3	stim03_sf1_pattern1_cont2_shape2.png	2	28	0	385.383780919485	385.483778368245	0.099997448760405	stim03_sf1_pattern1_cont2_shape2.png	1	1	2	2	1	3	0	0	0	0	0	0	0	0	0	0	0	0	1	18
221.5283203125	0.0999948095468426	453690	365	7	stim07_sf1_pattern2_cont2_shape2.png	2	29	0	385.883765230828	385.983760040375	0.0999948095468426	stim07_sf1_pattern2_cont2_shape2.png	1	2	2	2	1	1	0	0	0	0	0	0	0	0	0	0	0	0	1	18
222.0283203125	0.100006832630243	454714	366	9	stim09_sf2_pattern1_cont1_shape2.png	2	30	0	386.383747782695	386.483754615325	0.100006832630243	stim09_sf2_pattern1_cont1_shape2.png	2	1	1	2	1	4	0	0	0	0	0	0	0	0	0	0	0	0	1	18
222.52783203125	0.0999962757759931	455737	367	1	stim01_sf1_pattern1_cont1_shape2.png	2	31	0	386.883746463089	386.983742738865	0.0999962757759931	stim01_sf1_pattern1_cont1_shape2.png	1	1	1	2	1	3	0	0	0	0	0	0	0	0	0	0	0	0	1	18
223.02783203125	0.0999971555156662	456761	368	10	stim10_sf2_pattern1_cont2_shape1.png	2	32	0	387.383735759611	387.483732915127	0.0999971555156662	stim10_sf2_pattern1_cont2_shape1.png	2	1	2	1	1	4	0	0	0	0	0	0	0	0	0	0	0	0	1	18
223.52783203125	0.0999968622672895	457785	369	6	stim06_sf1_pattern2_cont2_shape1.png	2	33	0	387.883727695349	387.983724557616	0.0999968622672895	stim06_sf1_pattern2_cont2_shape1.png	1	2	2	1	1	1	0	0	0	0	0	0	0	0	0	0	0	0	1	18
224.02783203125	0.0999986217448168	458809	370	13	stim13_sf2_pattern2_cont1_shape2.png	2	34	0	388.383716991872	388.483715613616	0.0999986217448168	stim13_sf2_pattern2_cont1_shape2.png	2	2	1	2	1	2	0	0	0	0	0	0	0	0	0	0	0	0	1	18
224.52783203125	0.0999341076385463	459833	371	4	stim04_sf1_pattern2_cont1_shape1.png	2	35	0	388.883708047872	388.98364215551	0.0999341076385463	stim04_sf1_pattern2_cont1_shape1.png	1	2	1	1	1	1	0	0	0	0	0	0	0	0	0	0	0	0	1	18
225.02783203125	0.0999936365624308	460857	372	15	stim15_sf2_pattern2_cont2_shape2.png	2	36	0	389.383702329576	389.483695966139	0.0999936365624308	stim15_sf2_pattern2_cont2_shape2.png	2	2	2	2	1	2	0	0	0	0	0	0	0	0	0	0	0	0	1	18
225.52783203125	0.0999792675120261	461881	373	12	stim12_sf2_pattern2_cont1_shape1.png	2	37	0	389.883692505837	389.983671773349	0.0999792675120261	stim12_sf2_pattern2_cont1_shape1.png	2	2	1	1	1	2	0	0	0	0	0	0	0	0	0	0	0	0	1	18
226.02783203125	0.0999980352517014	462905	374	9	stim09_sf2_pattern1_cont1_shape2.png	2	38	0	390.383681802361	390.483679837613	0.0999980352517014	stim09_sf2_pattern1_cont1_shape2.png	2	1	1	2	1	4	0	0	0	0	0	0	0	0	0	0	0	0	1	18
226.52783203125	0.0999722296091932	463929	375	11	stim11_sf2_pattern1_cont2_shape2.png	2	39	0	390.883668166425	390.983640396034	0.0999722296091932	stim11_sf2_pattern1_cont2_shape2.png	2	1	2	2	1	4	0	0	0	0	0	0	0	0	0	0	0	0	1	18
227.02783203125	0.0999989149895555	464953	376	8	stim08_sf2_pattern1_cont1_shape1.png	2	40	0	391.383661861637	391.483660776626	0.0999989149895555	stim08_sf2_pattern1_cont1_shape1.png	2	1	1	1	1	4	0	0	0	0	0	0	0	0	0	0	0	0	1	18
227.52783203125	0.0999968622691085	465977	377	10	stim10_sf2_pattern1_cont2_shape1.png	2	41	0	391.883655263604	391.983652125873	0.0999968622691085	stim10_sf2_pattern1_cont2_shape1.png	2	1	2	1	1	4	0	0	0	0	0	0	0	0	0	0	0	0	1	18
228.02783203125	0.100023254402913	467001	378	6	stim06_sf1_pattern2_cont2_shape1.png	2	42	0	392.383621100453	392.483644354856	0.100023254402913	stim06_sf1_pattern2_cont2_shape1.png	1	2	2	1	1	1	0	0	0	0	0	0	0	0	0	0	0	0	1	18
228.52783203125	0.099997448760405	468025	379	2	stim02_sf1_pattern1_cont2_shape1.png	2	43	0	392.883635616126	392.983633064887	0.099997448760405	stim02_sf1_pattern1_cont2_shape1.png	1	1	2	1	1	3	0	0	0	0	0	0	0	0	0	0	0	0	1	18
229.02783203125	0.100032345026193	469049	380	1	stim01_sf1_pattern1_cont1_shape2.png	2	44	0	393.383602039466	393.483634384493	0.100032345026193	stim01_sf1_pattern1_cont1_shape2.png	1	1	1	2	1	3	0	0	0	0	0	0	0	0	0	0	0	0	1	18
229.52783203125	0.0999458374772075	470073	381	7	stim07_sf1_pattern2_cont2_shape2.png	2	45	0	393.883619194354	393.983565031831	0.0999458374772075	stim07_sf1_pattern2_cont2_shape2.png	1	2	2	2	1	1	0	0	0	0	0	0	0	0	0	0	0	0	1	18
230.02783203125	0.10000419341668	471097	382	0	stim00_sf1_pattern1_cont1_shape1.png	2	46	0	394.383606144911	394.483610338328	0.10000419341668	stim00_sf1_pattern1_cont1_shape1.png	1	1	1	1	1	3	0	0	0	0	0	0	0	0	0	0	0	0	1	18
230.52783203125	0.0999578605587885	472121	383	4	stim04_sf1_pattern2_cont1_shape1.png	2	47	0	394.883582245368	394.983540105926	0.0999578605587885	stim04_sf1_pattern2_cont1_shape1.png	1	2	1	1	1	1	0	0	0	0	0	0	0	0	0	0	0	0	1	18
231.02783203125	0.0999942230555462	473145	384	13	stim13_sf2_pattern2_cont1_shape2.png	2	48	0	395.383569782414	395.48356400547	0.0999942230555462	stim13_sf2_pattern2_cont1_shape2.png	2	2	1	2	1	2	0	0	0	0	0	0	0	0	0	0	0	0	1	18
231.52783203125	0.0999426117705298	474169	385	14	stim14_sf2_pattern2_cont2_shape1.png	2	49	0	395.883569635793	395.983512247563	0.0999426117705298	stim14_sf2_pattern2_cont2_shape1.png	2	2	2	1	1	2	0	0	0	0	0	0	0	0	0	0	0	0	1	18
232.02783203125	0.0999687106595957	475193	386	3	stim03_sf1_pattern1_cont2_shape2.png	2	50	0	396.383576527071	396.48354523773	0.0999687106595957	stim03_sf1_pattern1_cont2_shape2.png	1	1	2	2	1	3	0	0	0	0	0	0	0	0	0	0	0	0	1	18
232.52783203125	0.0999517023938097	476217	387	5	stim05_sf1_pattern2_cont1_shape2.png	2	51	0	396.883559372185	396.983511074579	0.0999517023938097	stim05_sf1_pattern2_cont1_shape2.png	1	2	1	2	1	1	0	0	0	0	0	0	0	0	0	0	0	0	1	18
233.02783203125	0.0999997947274096	477241	388	3	stim03_sf1_pattern1_cont2_shape2.png	2	52	0	397.383528727985	397.483528522713	0.0999997947274096	stim03_sf1_pattern1_cont2_shape2.png	1	1	2	2	1	3	0	0	0	0	0	0	0	0	0	0	0	0	1	18
233.52783203125	0.0999789742672874	478265	389	2	stim02_sf1_pattern1_cont2_shape1.png	2	53	0	397.883531807067	397.983510781334	0.0999789742672874	stim02_sf1_pattern1_cont2_shape1.png	1	1	2	1	1	3	0	0	0	0	0	0	0	0	0	0	0	0	1	18
234.02783203125	0.100004486663238	479289	390	15	stim15_sf2_pattern2_cont2_shape2.png	2	54	0	398.383528141492	398.483532628155	0.100004486663238	stim15_sf2_pattern2_cont2_shape2.png	2	2	2	2	1	2	0	0	0	0	0	0	0	0	0	0	0	0	1	18
234.52783203125	0.0999968622672895	480313	391	14	stim14_sf2_pattern2_cont2_shape1.png	2	55	0	398.88353884497	398.983535707237	0.0999968622672895	stim14_sf2_pattern2_cont2_shape1.png	2	2	2	1	1	2	0	0	0	0	0	0	0	0	0	0	0	0	1	18
235.02783203125	0.0999930500729533	481337	392	1	stim01_sf1_pattern1_cont1_shape2.png	2	56	0	399.383527261754	399.483520311827	0.0999930500729533	stim01_sf1_pattern1_cont1_shape2.png	1	1	1	2	1	3	0	0	0	0	0	0	0	0	0	0	0	0	1	18
235.52783203125	0.0999939298089885	482361	393	0	stim00_sf1_pattern1_cont1_shape1.png	2	57	0	399.883511573098	399.983505502907	0.0999939298089885	stim00_sf1_pattern1_cont1_shape1.png	1	1	1	1	1	3	0	0	0	0	0	0	0	0	0	0	0	0	1	18
236.02783203125	0.0999968622672895	483385	394	12	stim12_sf2_pattern2_cont1_shape1.png	2	58	0	400.383507614279	400.483504476546	0.0999968622672895	stim12_sf2_pattern2_cont1_shape1.png	2	2	1	1	1	2	0	0	0	0	0	0	0	0	0	0	0	0	1	18
236.52783203125	0.0999792675120261	484409	395	11	stim11_sf2_pattern1_cont2_shape2.png	2	59	0	400.883497204048	400.98347647156	0.0999792675120261	stim11_sf2_pattern1_cont2_shape2.png	2	1	2	2	1	4	0	0	0	0	0	0	0	0	0	0	0	0	1	18
237.02783203125	0.0999986217429978	485433	396	7	stim07_sf1_pattern2_cont2_shape2.png	2	60	0	401.383481222145	401.483479843888	0.0999986217429978	stim07_sf1_pattern2_cont2_shape2.png	1	2	2	2	1	1	0	0	0	0	0	0	0	0	0	0	0	0	1	18
237.52783203125	0.100000381218706	486457	397	4	stim04_sf1_pattern2_cont1_shape1.png	2	61	0	401.883480195784	401.983480577002	0.100000381218706	stim04_sf1_pattern2_cont1_shape1.png	1	2	1	1	1	1	0	0	0	0	0	0	0	0	0	0	0	0	1	18
238.02783203125	0.0999945163002849	487481	398	10	stim10_sf2_pattern1_cont2_shape1.png	2	62	0	402.383466559848	402.483461076148	0.0999945163002849	stim10_sf2_pattern1_cont2_shape1.png	2	1	2	1	1	4	0	0	0	0	0	0	0	0	0	0	0	0	1	18
238.52783203125	0.0999965690225508	488505	399	9	stim09_sf2_pattern1_cont1_shape2.png	2	63	0	402.883455269879	402.983451838902	0.0999965690225508	stim09_sf2_pattern1_cont1_shape2.png	2	1	1	2	1	4	0	0	0	0	0	0	0	0	0	0	0	0	1	18
239.02783203125	0.0999912905954261	489529	400	13	stim13_sf2_pattern2_cont1_shape2.png	2	64	0	403.383451017813	403.483442308408	0.0999912905954261	stim13_sf2_pattern2_cont1_shape2.png	2	2	1	2	1	2	0	0	0	0	0	0	0	0	0	0	0	0	1	18
239.52783203125	0.099988358137125	490553	401	6	stim06_sf1_pattern2_cont2_shape1.png	2	65	0	403.883438261615	403.983426619752	0.099988358137125	stim06_sf1_pattern2_cont2_shape1.png	1	2	2	1	1	1	0	0	0	0	0	0	0	0	0	0	0	0	1	18
240.02734375	0.0999942230555462	491576	402	8	stim08_sf2_pattern1_cont1_shape1.png	2	66	0	404.383428731122	404.483422954178	0.0999942230555462	stim08_sf2_pattern1_cont1_shape1.png	2	1	1	1	1	4	0	0	0	0	0	0	0	0	0	0	0	0	1	18
240.52734375	0.100015336762226	492600	403	5	stim05_sf1_pattern2_cont1_shape2.png	2	67	0	404.883369935313	404.983385272075	0.100015336762226	stim05_sf1_pattern2_cont1_shape2.png	1	2	1	2	1	1	0	0	0	0	0	0	0	0	0	0	0	0	1	18
241.02734375	0.0999959825312544	493624	404	2	stim02_sf1_pattern1_cont2_shape1.png	2	68	0	405.38341084312	405.483406825651	0.0999959825312544	stim02_sf1_pattern1_cont2_shape1.png	1	1	2	1	1	3	0	0	0	0	0	0	0	0	0	0	0	0	1	18
241.52734375	0.0999997947274096	494648	405	4	stim04_sf1_pattern2_cont1_shape1.png	2	69	0	405.883398380169	405.983398174896	0.0999997947274096	stim04_sf1_pattern2_cont1_shape1.png	1	2	1	1	1	1	0	0	0	0	0	0	0	0	0	0	0	0	1	18
242.02734375	0.0999997947274096	495672	406	5	stim05_sf1_pattern2_cont1_shape2.png	2	70	0	406.383389729413	406.483389524141	0.0999997947274096	stim05_sf1_pattern2_cont1_shape2.png	1	2	1	2	1	1	0	0	0	0	0	0	0	0	0	0	0	0	1	18
242.52734375	0.0999824932187039	496696	407	11	stim11_sf2_pattern1_cont2_shape2.png	2	71	0	406.883385477347	406.983367970566	0.0999824932187039	stim11_sf2_pattern1_cont2_shape2.png	2	1	2	2	1	4	0	0	0	0	0	0	0	0	0	0	0	0	1	18
243.02734375	0.0999936365642498	497720	408	14	stim14_sf2_pattern2_cont2_shape1.png	2	72	0	407.383373307641	407.483366944205	0.0999936365642498	stim14_sf2_pattern2_cont2_shape1.png	2	2	2	1	1	2	0	0	0	0	0	0	0	0	0	0	0	0	1	18
243.52734375	0.0999924635798379	498744	409	10	stim10_sf2_pattern1_cont2_shape1.png	2	73	0	407.883368469084	407.983360932663	0.0999924635798379	stim10_sf2_pattern1_cont2_shape1.png	2	1	2	1	1	4	0	0	0	0	0	0	0	0	0	0	0	0	1	18
244.02734375	0.099995396039958	499768	410	15	stim15_sf2_pattern2_cont2_shape2.png	2	74	0	408.383356592623	408.483351988663	0.099995396039958	stim15_sf2_pattern2_cont2_shape2.png	2	2	2	2	1	2	0	0	0	0	0	0	0	0	0	0	0	0	1	18
244.52734375	0.0999948095468426	500792	411	7	stim07_sf1_pattern2_cont2_shape2.png	2	75	0	408.883347648623	408.98334245817	0.0999948095468426	stim07_sf1_pattern2_cont2_shape2.png	1	2	2	2	1	1	0	0	0	0	0	0	0	0	0	0	0	0	1	18
245.02734375	0.100004486661419	501816	412	6	stim06_sf1_pattern2_cont2_shape1.png	2	76	0	409.383337531639	409.4833420183	0.100004486661419	stim06_sf1_pattern2_cont2_shape1.png	1	2	2	1	1	1	0	0	0	0	0	0	0	0	0	0	0	0	1	18
245.52734375	0.0999857189235627	502840	413	1	stim01_sf1_pattern1_cont1_shape2.png	2	77	0	409.883321842981	409.983307561904	0.0999857189235627	stim01_sf1_pattern1_cont1_shape2.png	1	1	1	2	1	3	0	0	0	0	0	0	0	0	0	0	0	0	1	18
246.02734375	0.0999959825294354	503864	414	0	stim00_sf1_pattern1_cont1_shape1.png	2	78	0	410.383295890717	410.483291873246	0.0999959825294354	stim00_sf1_pattern1_cont1_shape1.png	1	1	1	1	1	3	0	0	0	0	0	0	0	0	0	0	0	0	1	18
246.52734375	0.0999939298089885	504888	415	13	stim13_sf2_pattern2_cont1_shape2.png	2	79	0	410.883296330585	410.983290260394	0.0999939298089885	stim13_sf2_pattern2_cont1_shape2.png	2	2	1	2	1	2	0	0	0	0	0	0	0	0	0	0	0	0	1	18
247.02734375	0.0999924635798379	505912	416	9	stim09_sf2_pattern1_cont1_shape2.png	2	80	0	411.383280641927	411.483273105507	0.0999924635798379	stim09_sf2_pattern1_cont1_shape2.png	2	1	1	2	1	4	0	0	0	0	0	0	0	0	0	0	0	0	1	18
247.52734375	0.0999511159043323	506936	417	8	stim08_sf2_pattern1_cont1_shape1.png	2	81	0	411.883269058713	411.983220174618	0.0999511159043323	stim08_sf2_pattern1_cont1_shape1.png	2	1	1	1	1	4	0	0	0	0	0	0	0	0	0	0	0	0	1	18
248.02734375	0.099990410857572	507960	418	3	stim03_sf1_pattern1_cont2_shape2.png	2	82	0	412.383265979632	412.483256390489	0.099990410857572	stim03_sf1_pattern1_cont2_shape2.png	1	1	2	2	1	3	0	0	0	0	0	0	0	0	0	0	0	0	1	18
248.52734375	0.0999968622672895	508984	419	12	stim12_sf2_pattern2_cont1_shape1.png	2	83	0	412.883251463958	412.983248326225	0.0999968622672895	stim12_sf2_pattern2_cont1_shape1.png	2	2	1	1	1	2	0	0	0	0	0	0	0	0	0	0	0	0	1	18
249.02734375	0.0999945163021039	510008	420	15	stim15_sf2_pattern2_cont2_shape2.png	2	84	0	413.383245745661	413.483240261963	0.0999945163021039	stim15_sf2_pattern2_cont2_shape2.png	2	2	2	2	1	2	0	0	0	0	0	0	0	0	0	0	0	0	1	18
249.52734375	0.0999232575395581	511032	421	14	stim14_sf2_pattern2_cont2_shape1.png	2	85	0	413.883268472222	413.983191729762	0.0999232575395581	stim14_sf2_pattern2_cont2_shape1.png	2	2	2	1	1	2	0	0	0	0	0	0	0	0	0	0	0	0	1	18
250.02734375	0.0999889446284215	512056	422	6	stim06_sf1_pattern2_cont2_shape1.png	2	86	0	414.383258648482	414.483247593111	0.0999889446284215	stim06_sf1_pattern2_cont2_shape1.png	1	2	2	1	1	1	0	0	0	0	0	0	0	0	0	0	0	0	1	18
250.52734375	0.10000272718753	513080	423	8	stim08_sf2_pattern1_cont1_shape1.png	2	87	0	414.883246185531	414.983248912718	0.10000272718753	stim08_sf2_pattern1_cont1_shape1.png	2	1	1	1	1	4	0	0	0	0	0	0	0	0	0	0	0	0	1	18
251.02734375	0.0999956892846967	514104	424	3	stim03_sf1_pattern1_cont2_shape2.png	2	88	0	415.383236068546	415.483231757831	0.0999956892846967	stim03_sf1_pattern1_cont2_shape2.png	1	1	2	2	1	3	0	0	0	0	0	0	0	0	0	0	0	0	1	18
251.52734375	0.0999995014808519	515128	425	9	stim09_sf2_pattern1_cont1_shape2.png	2	89	0	415.883230350251	415.983229851732	0.0999995014808519	stim09_sf2_pattern1_cont1_shape2.png	2	1	1	2	1	4	0	0	0	0	0	0	0	0	0	0	0	0	1	18
252.02734375	0.0999936365642498	516152	426	13	stim13_sf2_pattern2_cont1_shape2.png	2	90	0	416.38321202238	416.483205658944	0.0999936365642498	stim13_sf2_pattern2_cont1_shape2.png	2	2	1	2	1	2	0	0	0	0	0	0	0	0	0	0	0	0	1	18
252.52734375	0.100002433940972	517176	427	2	stim02_sf1_pattern1_cont2_shape1.png	2	91	0	416.883204544609	416.98320697855	0.100002433940972	stim02_sf1_pattern1_cont2_shape1.png	1	1	2	1	1	3	0	0	0	0	0	0	0	0	0	0	0	0	1	18
253.02734375	0.0999930500711343	518200	428	5	stim05_sf1_pattern2_cont1_shape2.png	2	92	0	417.38320762369	417.483200673762	0.0999930500711343	stim05_sf1_pattern2_cont1_shape2.png	1	2	1	2	1	1	0	0	0	0	0	0	0	0	0	0	0	0	1	18
253.52734375	0.0999971555138472	519224	429	1	stim01_sf1_pattern1_cont1_shape2.png	2	93	0	417.883184897131	417.983182052645	0.0999971555138472	stim01_sf1_pattern1_cont1_shape2.png	1	1	1	2	1	3	0	0	0	0	0	0	0	0	0	0	0	0	1	18
254.02734375	0.0999992082361132	520248	430	4	stim04_sf1_pattern2_cont1_shape1.png	2	94	0	418.383173020671	418.483172228907	0.0999992082361132	stim04_sf1_pattern2_cont1_shape1.png	1	2	1	1	1	1	0	0	0	0	0	0	0	0	0	0	0	0	1	18
254.52734375	0.0999977420069627	521272	431	11	stim11_sf2_pattern1_cont2_shape2.png	2	95	0	418.883167888867	418.983165630874	0.0999977420069627	stim11_sf2_pattern1_cont2_shape2.png	2	1	2	2	1	4	0	0	0	0	0	0	0	0	0	0	0	0	1	18
255.02734375	0.0999951027934003	522296	432	0	stim00_sf1_pattern1_cont1_shape1.png	2	96	0	419.383160704341	419.483155807135	0.0999951027934003	stim00_sf1_pattern1_cont1_shape1.png	1	1	1	1	1	3	0	0	0	0	0	0	0	0	0	0	0	0	1	18
255.52734375	0.0999968622672895	523320	433	12	stim12_sf2_pattern2_cont1_shape1.png	2	97	0	419.883149414374	419.983146276641	0.0999968622672895	stim12_sf2_pattern2_cont1_shape1.png	2	2	1	1	1	2	0	0	0	0	0	0	0	0	0	0	0	0	1	18
256.02734375	0.099990410859391	524344	434	10	stim10_sf2_pattern1_cont2_shape1.png	2	98	0	420.38314135011	420.48313176097	0.099990410859391	stim10_sf2_pattern1_cont2_shape1.png	2	1	2	1	1	4	0	0	0	0	0	0	0	0	0	0	0	0	1	18
256.52734375	0.0999279494753864	525368	435	7	stim07_sf1_pattern2_cont2_shape2.png	2	99	0	420.883129766897	420.983057716372	0.0999279494753864	stim07_sf1_pattern2_cont2_shape2.png	1	2	2	2	1	1	0	0	0	0	0	0	0	0	0	0	0	0	1	18
257.02734375	0.0999921703350992	526392	436	13	stim13_sf2_pattern2_cont1_shape2.png	2	100	0	421.383126687813	421.483118858148	0.0999921703350992	stim13_sf2_pattern2_cont1_shape2.png	2	2	1	2	1	2	0	0	0	0	0	0	0	0	0	0	0	0	1	18
257.52685546875	0.0999983284982591	527415	437	8	stim08_sf2_pattern1_cont1_shape1.png	2	101	0	421.883112465386	421.983110793884	0.0999983284982591	stim08_sf2_pattern1_cont1_shape1.png	2	1	1	1	1	4	0	0	0	0	0	0	0	0	0	0	0	0	1	18
258.02685546875	0.0999986217429978	528439	438	7	stim07_sf1_pattern2_cont2_shape2.png	2	102	0	422.383102641648	422.483101263391	0.0999986217429978	stim07_sf1_pattern2_cont2_shape2.png	1	2	2	2	1	1	0	0	0	0	0	0	0	0	0	0	0	0	1	18
258.52685546875	0.0999924635798379	529463	439	2	stim02_sf1_pattern1_cont2_shape1.png	2	103	0	422.883096630107	422.983089093686	0.0999924635798379	stim02_sf1_pattern1_cont2_shape1.png	1	1	2	1	1	3	0	0	0	0	0	0	0	0	0	0	0	0	1	18
259.02685546875	0.0999895311197179	530487	440	14	stim14_sf2_pattern2_cont2_shape1.png	2	104	0	423.383087979351	423.483077510471	0.0999895311197179	stim14_sf2_pattern2_cont2_shape1.png	2	2	2	1	1	2	0	0	0	0	0	0	0	0	0	0	0	0	1	18
259.52685546875	0.0999992082361132	531511	441	6	stim06_sf1_pattern2_cont2_shape1.png	2	105	0	423.883078448858	423.983077657094	0.0999992082361132	stim06_sf1_pattern2_cont2_shape1.png	1	2	2	1	1	1	0	0	0	0	0	0	0	0	0	0	0	0	1	18
260.02685546875	0.0999942230555462	532535	442	0	stim00_sf1_pattern1_cont1_shape1.png	2	106	1	424.383070677841	424.483064900896	0.0999942230555462	stim00_sf1_pattern1_cont1_shape1.png	1	1	1	1	1	3	0	0	0	0	0	0	0	0	0	0	0	0	1	18
260.52685546875	0.0999971555138472	533559	443	0	stim00_sf1_pattern1_cont1_shape1.png	2	107	1	424.883059094627	424.983056250141	0.0999971555138472	stim00_sf1_pattern1_cont1_shape1.png	1	1	1	1	1	3	0	0	0	0	0	0	0	0	0	0	0	0	1	18
261.02685546875	0.100001554203118	534583	444	8	stim08_sf2_pattern1_cont1_shape1.png	2	108	2	425.383049564134	425.483051118337	0.100001554203118	stim08_sf2_pattern1_cont1_shape1.png	2	1	1	1	1	4	0	0	0	0	0	0	0	0	0	0	0	0	1	18
261.52685546875	0.0999364536073699	535607	445	2	stim02_sf1_pattern1_cont2_shape1.png	2	109	2	425.883042086363	425.982978539971	0.0999364536073699	stim02_sf1_pattern1_cont2_shape1.png	1	1	2	1	1	3	0	0	0	0	0	0	0	0	0	0	0	0	1	18
262.02685546875	0.100003900170123	536631	446	10	stim10_sf2_pattern1_cont2_shape1.png	2	110	0	426.383006456983	426.483010357153	0.100003900170123	stim10_sf2_pattern1_cont2_shape1.png	2	1	2	1	1	4	0	0	0	0	0	0	0	0	0	0	0	0	1	18
262.52685546875	0.0999816134790308	537655	447	5	stim05_sf1_pattern2_cont1_shape2.png	2	111	0	426.883028890297	426.983010503776	0.0999816134790308	stim05_sf1_pattern2_cont1_shape2.png	1	2	1	2	1	1	0	0	0	0	0	0	0	0	0	0	0	0	1	18
263.02685546875	0.0999977420069627	538679	448	4	stim04_sf1_pattern2_cont1_shape1.png	2	112	0	427.383009682688	427.483007424695	0.0999977420069627	stim04_sf1_pattern2_cont1_shape1.png	1	2	1	1	1	1	0	0	0	0	0	0	0	0	0	0	0	0	1	18
263.52685546875	0.100010058335101	539703	449	9	stim09_sf2_pattern1_cont1_shape2.png	2	113	0	427.882988715604	427.982998773939	0.100010058335101	stim09_sf2_pattern1_cont1_shape2.png	2	1	1	2	1	4	0	0	0	0	0	0	0	0	0	0	0	0	1	18
264.02685546875	0.0999951027934003	540727	450	1	stim01_sf1_pattern1_cont1_shape2.png	2	114	0	428.382973320193	428.482968422986	0.0999951027934003	stim01_sf1_pattern1_cont1_shape2.png	1	1	1	2	1	3	0	0	0	0	0	0	0	0	0	0	0	0	1	18
