onset	duration	onsetsample	eventnumber	stimnumber	stimname	blocknumber	trialnumber	istarget	time_stimon	time_stimoff	stimdur	stimfilename	spatial_freq	pattern	contrast	shape	is_fast_stream	category	ppt_1_response	ppt_1_keypressed	ppt_1_rt	ppt_1_correct	ppt_2_response	ppt_2_keypressed	ppt_2_rt	ppt_2_correct	button1	button2	button3	button4	task_part_number	subjectnr
165.0107421875	0.0999963051217492	337942	0	11	stim11_sf2_pattern1_cont2_shape2.png	0	0	0	216.560590723038	216.66058702816	0.0999963051217492	stim11_sf2_pattern1_cont2_shape2.png	2	1	2	2	1	2	0	0	0	0	0	0	0	0	0	0	0	0	1	13
165.51904296875	0.0999927861921606	338983	1	1	stim01_sf1_pattern1_cont1_shape2.png	0	1	0	217.068903905601	217.168896691794	0.0999927861921606	stim01_sf1_pattern1_cont1_shape2.png	1	1	1	2	1	1	0	0	0	0	0	0	0	0	0	0	0	0	1	13
166.01904296875	0.106184639513231	340007	2	14	stim14_sf2_pattern2_cont2_shape1.png	0	2	0	217.587695586612	217.693880226125	0.106184639513231	stim14_sf2_pattern2_cont2_shape1.png	2	2	2	1	1	4	0	0	0	0	0	0	0	0	0	0	0	0	1	13
166.5439453125	0.0999974780970661	341082	3	3	stim03_sf1_pattern1_cont2_shape2.png	0	3	0	218.093895944021	218.193893422118	0.0999974780970661	stim03_sf1_pattern1_cont2_shape2.png	1	1	2	2	1	2	0	0	0	0	0	0	0	0	0	0	0	0	1	13
167.0439453125	0.100018884932069	342106	4	12	stim12_sf2_pattern2_cont1_shape1.png	0	4	0	218.593883921003	218.693902805935	0.100018884932069	stim12_sf2_pattern2_cont1_shape1.png	2	2	1	1	1	3	0	0	0	0	0	0	0	0	0	0	0	0	1	13
167.5439453125	0.0999886807694566	343130	5	10	stim10_sf2_pattern1_cont2_shape1.png	0	5	0	219.093871604742	219.193860285512	0.0999886807694566	stim10_sf2_pattern1_cont2_shape1.png	2	1	2	1	1	4	0	0	0	0	0	0	0	0	0	0	0	0	1	13
168.0439453125	0.0999748982867459	344154	6	15	stim15_sf2_pattern2_cont2_shape2.png	0	6	0	219.593849024932	219.693823923219	0.0999748982867459	stim15_sf2_pattern2_cont2_shape2.png	2	2	2	2	1	2	0	0	0	0	0	0	0	0	0	0	0	0	1	13
168.5439453125	0.0999361900394433	345178	7	7	stim07_sf1_pattern2_cont2_shape2.png	0	7	0	220.093907673792	220.193843863832	0.0999361900394433	stim07_sf1_pattern2_cont2_shape2.png	1	2	2	2	1	2	0	0	0	0	0	0	0	0	0	0	0	0	1	13
169.0439453125	0.100007155164349	346202	8	5	stim05_sf1_pattern2_cont1_shape2.png	0	8	0	220.593815301836	220.693822457	0.100007155164349	stim05_sf1_pattern2_cont1_shape2.png	1	2	1	2	1	1	0	0	0	0	0	0	0	0	0	0	0	0	1	13
169.5439453125	0.0999965983646689	347226	9	13	stim13_sf2_pattern2_cont1_shape2.png	0	9	0	221.093813835618	221.193810433982	0.0999965983646689	stim13_sf2_pattern2_cont1_shape2.png	2	2	1	2	1	1	0	0	0	0	0	0	0	0	0	0	0	0	1	13
170.0439453125	0.100015072755923	348250	10	2	stim02_sf1_pattern1_cont2_shape1.png	0	10	0	221.593783044966	221.693798117722	0.100015072755923	stim02_sf1_pattern1_cont2_shape1.png	1	1	2	1	1	4	0	0	0	0	0	0	0	0	0	0	0	0	1	13
170.5439453125	0.099993372678	349274	11	6	stim06_sf1_pattern2_cont2_shape1.png	0	11	0	222.093787736874	222.193781109552	0.099993372678	stim06_sf1_pattern2_cont2_shape1.png	1	2	2	1	1	4	0	0	0	0	0	0	0	0	0	0	0	0	1	13
171.0439453125	0.100006275428314	350298	12	0	stim00_sf1_pattern1_cont1_shape1.png	0	12	0	222.593766330039	222.693772605468	0.100006275428314	stim00_sf1_pattern1_cont1_shape1.png	1	1	1	1	1	3	0	0	0	0	0	0	0	0	0	0	0	0	1	13
171.5439453125	0.100000117297895	351322	13	4	stim04_sf1_pattern2_cont1_shape1.png	0	13	0	223.093764570574	223.193764687872	0.100000117297895	stim04_sf1_pattern2_cont1_shape1.png	1	2	1	1	1	3	0	0	0	0	0	0	0	0	0	0	0	0	1	13
172.0439453125	0.10000744840363	352346	14	8	stim08_sf2_pattern1_cont1_shape1.png	0	14	0	223.593741111032	223.693748559435	0.10000744840363	stim08_sf2_pattern1_cont1_shape1.png	2	1	1	1	1	3	0	0	0	0	0	0	0	0	0	0	0	0	1	13
172.5439453125	0.100002463252167	353370	15	9	stim09_sf2_pattern1_cont1_shape2.png	0	15	0	224.093723516373	224.193725979625	0.100002463252167	stim09_sf2_pattern1_cont1_shape2.png	2	1	1	2	1	1	0	0	0	0	0	0	0	0	0	0	0	0	1	13
173.0439453125	0.100017711956752	354394	16	8	stim08_sf2_pattern1_cont1_shape1.png	0	16	0	224.593701229805	224.693718941762	0.100017711956752	stim08_sf2_pattern1_cont1_shape1.png	2	1	1	1	1	3	0	0	0	0	0	0	0	0	0	0	0	0	1	13
173.5439453125	0.0999919064561254	355418	17	3	stim03_sf1_pattern1_cont2_shape2.png	0	17	0	225.093720877176	225.193712783632	0.0999919064561254	stim03_sf1_pattern1_cont2_shape2.png	1	1	2	2	1	2	0	0	0	0	0	0	0	0	0	0	0	0	1	13
174.0439453125	0.100006861917791	356442	18	4	stim04_sf1_pattern2_cont1_shape1.png	0	18	0	225.593692432478	225.693699294396	0.100006861917791	stim04_sf1_pattern2_cont1_shape1.png	1	2	1	1	1	3	0	0	0	0	0	0	0	0	0	0	0	0	1	13
174.5439453125	0.0999740185543487	357466	19	11	stim11_sf2_pattern1_cont2_shape2.png	0	19	0	226.093666333734	226.193640352289	0.0999740185543487	stim11_sf2_pattern1_cont2_shape2.png	2	1	2	2	1	2	0	0	0	0	0	0	0	0	0	0	0	0	1	13
175.0439453125	0.100009501114982	358490	20	1	stim01_sf1_pattern1_cont1_shape2.png	0	20	0	226.593668679689	226.693678180804	0.100009501114982	stim01_sf1_pattern1_cont1_shape2.png	1	1	1	2	1	1	0	0	0	0	0	0	0	0	0	0	0	0	1	13
175.54345703125	0.0999713793571573	359513	21	13	stim13_sf2_pattern2_cont1_shape2.png	0	21	0	227.093677183773	227.19364856313	0.0999713793571573	stim13_sf2_pattern2_cont1_shape2.png	2	2	1	2	1	1	0	0	0	0	0	0	0	0	0	0	0	0	1	13
176.04345703125	0.0999901469913311	360537	22	14	stim14_sf2_pattern2_cont2_shape1.png	0	22	0	227.593659295871	227.693649442863	0.0999901469913311	stim14_sf2_pattern2_cont2_shape1.png	2	2	2	1	1	4	0	0	0	0	0	0	0	0	0	0	0	0	1	13
176.54345703125	0.10000158351977	361561	23	9	stim09_sf2_pattern1_cont1_shape2.png	0	23	0	228.093622347089	228.193623930609	0.10000158351977	stim09_sf2_pattern1_cont1_shape2.png	2	1	1	2	1	1	0	0	0	0	0	0	0	0	0	0	0	0	1	13
177.04345703125	0.100030907949986	362585	24	6	stim06_sf1_pattern2_cont2_shape1.png	0	24	0	228.593588623997	228.693619531947	0.100030907949986	stim06_sf1_pattern2_cont2_shape1.png	1	2	2	1	1	4	0	0	0	0	0	0	0	0	0	0	0	0	1	13
177.54345703125	0.0999960118788294	363609	25	12	stim12_sf2_pattern2_cont1_shape1.png	0	25	0	229.093597421324	229.193593433203	0.0999960118788294	stim12_sf2_pattern2_cont1_shape1.png	2	2	1	1	1	3	0	0	0	0	0	0	0	0	0	0	0	0	1	13
178.04345703125	0.100016538977798	364633	26	7	stim07_sf1_pattern2_cont2_shape2.png	0	26	0	229.593564577965	229.693581116942	0.100016538977798	stim07_sf1_pattern2_cont2_shape2.png	1	2	2	2	1	2	0	0	0	0	0	0	0	0	0	0	0	0	1	13
178.54345703125	0.0999880942836171	365657	27	5	stim05_sf1_pattern2_cont1_shape2.png	0	27	0	230.093579533423	230.193567627706	0.0999880942836171	stim05_sf1_pattern2_cont1_shape2.png	1	2	1	2	1	1	0	0	0	0	0	0	0	0	0	0	0	0	1	13
179.04345703125	0.0999977713436238	366681	28	0	stim00_sf1_pattern1_cont1_shape1.png	0	28	0	230.593561059031	230.693558830375	0.0999977713436238	stim00_sf1_pattern1_cont1_shape1.png	1	1	1	1	1	3	0	0	0	0	0	0	0	0	0	0	0	0	1	13
179.54345703125	0.0999740185543487	367705	29	10	stim10_sf2_pattern1_cont2_shape1.png	0	29	0	231.093548449528	231.193522468082	0.0999740185543487	stim10_sf2_pattern1_cont2_shape1.png	2	1	2	1	1	4	0	0	0	0	0	0	0	0	0	0	0	0	1	13
180.04345703125	0.0999819361495611	368729	30	15	stim15_sf2_pattern2_cont2_shape2.png	0	30	0	231.59355607388	231.693538010029	0.0999819361495611	stim15_sf2_pattern2_cont2_shape2.png	2	2	2	2	1	2	0	0	0	0	0	0	0	0	0	0	0	0	1	13
180.54345703125	0.0999977713436238	369753	31	2	stim02_sf1_pattern1_cont2_shape1.png	0	31	0	232.093529975136	232.19352774648	0.0999977713436238	stim02_sf1_pattern1_cont2_shape1.png	1	1	2	1	1	4	0	0	0	0	0	0	0	0	0	0	0	0	1	13
181.04345703125	0.0999842821038328	370777	32	3	stim03_sf1_pattern1_cont2_shape2.png	0	32	0	232.593528215672	232.693512497775	0.0999842821038328	stim03_sf1_pattern1_cont2_shape2.png	1	1	2	2	1	2	0	0	0	0	0	0	0	0	0	0	0	0	1	13
181.54345703125	0.100012726801651	371801	33	0	stim00_sf1_pattern1_cont1_shape1.png	0	33	0	233.093515019678	233.19352774648	0.100012726801651	stim00_sf1_pattern1_cont1_shape1.png	1	1	1	1	1	3	0	0	0	0	0	0	0	0	0	0	0	0	1	13
182.04345703125	0.0999878010370594	372825	34	8	stim08_sf2_pattern1_cont1_shape1.png	0	34	0	233.593525869717	233.693513670754	0.0999878010370594	stim08_sf2_pattern1_cont1_shape1.png	2	1	1	1	1	3	0	0	0	0	0	0	0	0	0	0	0	0	1	13
182.54345703125	0.0999986510760209	373849	35	9	stim09_sf2_pattern1_cont1_shape2.png	0	35	0	234.093506808837	234.193505459913	0.0999986510760209	stim09_sf2_pattern1_cont1_shape2.png	2	1	1	2	1	1	0	0	0	0	0	0	0	0	0	0	0	0	1	13
183.04345703125	0.0999939591674774	374873	36	12	stim12_sf2_pattern2_cont1_shape1.png	0	36	0	234.593489214181	234.693483173349	0.0999939591674774	stim12_sf2_pattern2_cont1_shape1.png	2	2	1	1	1	3	0	0	0	0	0	0	0	0	0	0	0	0	1	13
183.54345703125	0.0999942524140351	375897	37	5	stim05_sf1_pattern2_cont1_shape2.png	0	37	0	235.093478070896	235.19347232331	0.0999942524140351	stim05_sf1_pattern2_cont1_shape2.png	1	2	1	2	1	1	0	0	0	0	0	0	0	0	0	0	0	0	1	13
184.04345703125	0.0999957186322717	376921	38	10	stim10_sf2_pattern1_cont2_shape1.png	0	38	0	235.593475431699	235.693471150331	0.0999957186322717	stim10_sf2_pattern1_cont2_shape1.png	2	1	2	1	1	4	0	0	0	0	0	0	0	0	0	0	0	0	1	13
184.54345703125	0.0999971848541463	377945	39	4	stim04_sf1_pattern2_cont1_shape1.png	0	39	0	236.093449332955	236.193446517809	0.0999971848541463	stim04_sf1_pattern2_cont1_shape1.png	1	2	1	1	1	3	0	0	0	0	0	0	0	0	0	0	0	0	1	13
185.04345703125	0.100008621382585	378969	40	7	stim07_sf1_pattern2_cont2_shape2.png	0	40	0	236.593428219367	236.693436840749	0.100008621382585	stim07_sf1_pattern2_cont2_shape2.png	1	2	2	2	1	2	0	0	0	0	0	0	0	0	0	0	0	0	1	13
185.54345703125	0.0999957186359097	379993	41	14	stim14_sf2_pattern2_cont2_shape1.png	0	41	0	237.093427046388	237.193422765024	0.0999957186359097	stim14_sf2_pattern2_cont2_shape1.png	2	2	2	1	1	4	0	0	0	0	0	0	0	0	0	0	0	0	1	13
186.04345703125	0.100004515959881	381017	42	2	stim02_sf1_pattern1_cont2_shape1.png	0	42	0	237.593407105778	237.693411621738	0.100004515959881	stim02_sf1_pattern1_cont2_shape1.png	1	1	2	1	1	4	0	0	0	0	0	0	0	0	0	0	0	0	1	13
186.54345703125	0.0999839888609131	382041	43	11	stim11_sf2_pattern1_cont2_shape2.png	0	43	0	238.09340241387	238.193386402731	0.0999839888609131	stim11_sf2_pattern1_cont2_shape2.png	2	1	2	2	1	2	0	0	0	0	0	0	0	0	0	0	0	0	1	13
187.04345703125	0.0999939591674774	383065	44	1	stim01_sf1_pattern1_cont1_shape2.png	0	44	0	238.593395376007	238.693389335174	0.0999939591674774	stim01_sf1_pattern1_cont1_shape2.png	1	1	1	2	1	1	0	0	0	0	0	0	0	0	0	0	0	0	1	13
187.54345703125	0.0999957186322717	384089	45	13	stim13_sf2_pattern2_cont1_shape2.png	0	45	0	239.09337866108	239.193374379713	0.0999957186322717	stim13_sf2_pattern2_cont1_shape2.png	2	2	1	2	1	1	0	0	0	0	0	0	0	0	0	0	0	0	1	13
188.04345703125	0.10000979436154	385113	46	6	stim06_sf1_pattern2_cont2_shape1.png	0	46	0	239.593354028559	239.69336382292	0.10000979436154	stim06_sf1_pattern2_cont2_shape1.png	1	2	2	1	1	4	0	0	0	0	0	0	0	0	0	0	0	0	1	13
188.54345703125	0.0999989443189406	386137	47	10	stim10_sf2_pattern1_cont2_shape1.png	0	47	1	240.093353735316	240.193352679635	0.0999989443189406	stim10_sf2_pattern1_cont2_shape1.png	2	1	2	1	1	4	0	0	0	0	0	0	0	0	0	0	0	0	1	13
189.04345703125	0.100008328139666	387161	48	10	stim10_sf2_pattern1_cont2_shape1.png	0	48	1	240.593332328481	240.69334065662	0.100008328139666	stim10_sf2_pattern1_cont2_shape1.png	2	1	2	1	1	4	0	0	0	0	0	0	0	0	0	0	0	0	1	13
189.54345703125	0.0999965983683069	388185	49	0	stim00_sf1_pattern1_cont1_shape1.png	0	49	2	241.093329982526	241.193326580895	0.0999965983683069	stim00_sf1_pattern1_cont1_shape1.png	1	1	1	1	1	3	0	0	0	0	0	0	0	0	0	0	0	0	1	13
190.04345703125	0.100018884932069	389209	50	12	stim12_sf2_pattern2_cont1_shape1.png	0	50	2	241.593304763519	241.693323648451	0.100018884932069	stim12_sf2_pattern2_cont1_shape1.png	2	2	1	1	1	3	0	0	0	0	0	0	0	0	0	0	0	0	1	13
190.54345703125	0.0999825226390385	390233	51	15	stim15_sf2_pattern2_cont2_shape2.png	0	51	0	242.093320598709	242.193303121348	0.0999825226390385	stim15_sf2_pattern2_cont2_shape2.png	2	2	2	2	1	2	0	0	0	0	0	0	0	0	0	0	0	0	1	13
191.04345703125	0.0999895605054917	391257	52	13	stim13_sf2_pattern2_cont1_shape2.png	0	52	0	242.593283649927	242.693273210432	0.0999895605054917	stim13_sf2_pattern2_cont1_shape2.png	2	2	1	2	1	1	0	0	0	0	0	0	0	0	0	0	0	0	1	13
191.54345703125	0.0999754847762233	392281	53	1	stim01_sf1_pattern1_cont1_shape2.png	0	53	0	243.093280717487	243.193256202263	0.0999754847762233	stim01_sf1_pattern1_cont1_shape2.png	1	1	1	2	1	1	0	0	0	0	0	0	0	0	0	0	0	0	1	13
192.04345703125	0.0999725523324742	393305	54	2	stim02_sf1_pattern1_cont2_shape1.png	0	54	0	243.593254618743	243.693227171076	0.0999725523324742	stim02_sf1_pattern1_cont2_shape1.png	1	1	2	1	1	4	0	0	0	0	0	0	0	0	0	0	0	0	1	13
192.54296875	0.0999977713436238	394328	55	15	stim15_sf2_pattern2_cont2_shape2.png	0	55	0	244.093212978052	244.193210749396	0.0999977713436238	stim15_sf2_pattern2_cont2_shape2.png	2	2	2	2	1	2	0	0	0	0	0	0	0	0	0	0	0	0	1	13
193.04296875	0.0999766577515402	395352	56	9	stim09_sf2_pattern1_cont1_shape2.png	0	56	0	244.593229692979	244.69320635073	0.0999766577515402	stim09_sf2_pattern1_cont1_shape2.png	2	1	1	2	1	1	0	0	0	0	0	0	0	0	0	0	0	0	1	13
193.54296875	0.0999748982903839	396376	57	11	stim11_sf2_pattern1_cont2_shape2.png	0	57	0	245.093231745686	245.193206643977	0.0999748982903839	stim11_sf2_pattern1_cont2_shape2.png	2	1	2	2	1	2	0	0	0	0	0	0	0	0	0	0	0	0	1	13
194.04296875	0.0999834023714357	397400	58	12	stim12_sf2_pattern2_cont1_shape1.png	0	58	0	245.593224414581	245.693207816952	0.0999834023714357	stim12_sf2_pattern2_cont1_shape1.png	2	2	1	1	1	3	0	0	0	0	0	0	0	0	0	0	0	0	1	13
194.54296875	0.0999963051217492	398424	59	0	stim00_sf1_pattern1_cont1_shape1.png	0	59	0	246.09316576572	246.193162070842	0.0999963051217492	stim00_sf1_pattern1_cont1_shape1.png	1	1	1	1	1	3	0	0	0	0	0	0	0	0	0	0	0	0	1	13
195.04296875	0.100001876766328	399448	60	14	stim14_sf2_pattern2_cont2_shape1.png	0	60	0	246.593180721178	246.693182597945	0.100001876766328	stim14_sf2_pattern2_cont2_shape1.png	2	2	2	1	1	4	0	0	0	0	0	0	0	0	0	0	0	0	1	13
195.54296875	0.0999878010370594	400472	61	6	stim06_sf1_pattern2_cont2_shape1.png	0	61	0	247.093171923851	247.193159724888	0.0999878010370594	stim06_sf1_pattern2_cont2_shape1.png	1	2	2	1	1	4	0	0	0	0	0	0	0	0	0	0	0	0	1	13
196.04296875	0.0999927861885226	401496	62	3	stim03_sf1_pattern1_cont2_shape2.png	0	62	0	247.593149050797	247.693141836986	0.0999927861885226	stim03_sf1_pattern1_cont2_shape2.png	1	1	2	2	1	2	0	0	0	0	0	0	0	0	0	0	0	0	1	13
196.54296875	0.100003929470404	402520	63	4	stim04_sf1_pattern2_cont1_shape1.png	0	63	0	248.093146704843	248.193150634313	0.100003929470404	stim04_sf1_pattern2_cont1_shape1.png	1	2	1	1	1	3	0	0	0	0	0	0	0	0	0	0	0	0	1	13
197.04296875	0.100012433558732	403544	64	7	stim07_sf1_pattern2_cont2_shape2.png	0	64	0	248.593145238621	248.69315767218	0.100012433558732	stim07_sf1_pattern2_cont2_shape2.png	1	2	2	2	1	2	0	0	0	0	0	0	0	0	0	0	0	0	1	13
197.54296875	0.0999924929456029	404568	65	10	stim10_sf2_pattern1_cont2_shape1.png	0	65	0	249.093151689995	249.19314418294	0.0999924929456029	stim10_sf2_pattern1_cont2_shape1.png	2	1	2	1	1	4	0	0	0	0	0	0	0	0	0	0	0	0	1	13
198.04296875	0.100007155160711	405592	66	8	stim08_sf2_pattern1_cont1_shape1.png	0	66	0	249.593119139878	249.693126295038	0.100007155160711	stim08_sf2_pattern1_cont1_shape1.png	2	1	1	1	1	3	0	0	0	0	0	0	0	0	0	0	0	0	1	13
198.54296875	0.0999977713436238	406616	67	5	stim05_sf1_pattern2_cont1_shape2.png	0	67	0	250.093115034459	250.193112805802	0.0999977713436238	stim05_sf1_pattern2_cont1_shape2.png	1	2	1	2	1	1	0	0	0	0	0	0	0	0	0	0	0	0	1	13
199.04296875	0.100004515963519	407640	68	11	stim11_sf2_pattern1_cont2_shape2.png	0	68	0	250.593105357395	250.693109873358	0.100004515963519	stim11_sf2_pattern1_cont2_shape2.png	2	1	2	2	1	2	0	0	0	0	0	0	0	0	0	0	0	0	1	13
199.54296875	0.0999963051217492	408664	69	13	stim13_sf2_pattern2_cont1_shape2.png	0	69	0	251.093092454648	251.19308875977	0.0999963051217492	stim13_sf2_pattern2_cont1_shape2.png	2	2	1	2	1	1	0	0	0	0	0	0	0	0	0	0	0	0	1	13
200.04296875	0.100002756495087	409688	70	8	stim08_sf2_pattern1_cont1_shape1.png	0	70	0	251.593075739722	251.693078496217	0.100002756495087	stim08_sf2_pattern1_cont1_shape1.png	2	1	1	1	1	3	0	0	0	0	0	0	0	0	0	0	0	0	1	13
200.54296875	0.100006275428314	410712	71	0	stim00_sf1_pattern1_cont1_shape1.png	0	71	0	252.093056678841	252.193062954269	0.100006275428314	stim00_sf1_pattern1_cont1_shape1.png	1	1	1	1	1	3	0	0	0	0	0	0	0	0	0	0	0	0	1	13
201.04296875	0.100010967336857	411736	72	3	stim03_sf1_pattern1_cont2_shape2.png	0	72	0	252.593044655827	252.693055623164	0.100010967336857	stim03_sf1_pattern1_cont2_shape2.png	1	1	2	2	1	2	0	0	0	0	0	0	0	0	0	0	0	0	1	13
201.54296875	0.0999960118788294	412760	73	6	stim06_sf1_pattern2_cont2_shape1.png	0	73	0	253.093044655827	253.193040667706	0.0999960118788294	stim06_sf1_pattern2_cont2_shape1.png	1	2	2	1	1	4	0	0	0	0	0	0	0	0	0	0	0	0	1	13
202.04296875	0.0999781239734148	413784	74	1	stim01_sf1_pattern1_cont1_shape2.png	0	74	0	253.593014158421	253.692992282395	0.0999781239734148	stim01_sf1_pattern1_cont1_shape2.png	1	1	1	2	1	1	0	0	0	0	0	0	0	0	0	0	0	0	1	13
202.54296875	0.0999784172199725	414808	75	14	stim14_sf2_pattern2_cont2_shape1.png	0	75	0	254.09301885033	254.19299726755	0.0999784172199725	stim14_sf2_pattern2_cont2_shape1.png	2	2	2	1	1	4	0	0	0	0	0	0	0	0	0	0	0	0	1	13
203.04296875	0.0999963051217492	415832	76	12	stim12_sf2_pattern2_cont1_shape1.png	0	76	0	254.593007413801	254.693003718923	0.0999963051217492	stim12_sf2_pattern2_cont1_shape1.png	2	2	1	1	1	3	0	0	0	0	0	0	0	0	0	0	0	0	1	13
203.54296875	0.0999951321427943	416856	77	2	stim02_sf1_pattern1_cont2_shape1.png	0	77	0	255.092996563762	255.192991695905	0.0999951321427943	stim02_sf1_pattern1_cont2_shape1.png	1	1	2	1	1	4	0	0	0	0	0	0	0	0	0	0	0	0	1	13
204.04296875	0.10000979436154	417880	78	4	stim04_sf1_pattern2_cont1_shape1.png	0	78	0	255.592970465019	255.69298025938	0.10000979436154	stim04_sf1_pattern2_cont1_shape1.png	1	2	1	1	1	3	0	0	0	0	0	0	0	0	0	0	0	0	1	13
204.54296875	0.100015365998843	418904	79	15	stim15_sf2_pattern2_cont2_shape2.png	0	79	0	256.092952283874	256.192967649873	0.100015365998843	stim15_sf2_pattern2_cont2_shape2.png	2	2	2	2	1	2	0	0	0	0	0	0	0	0	0	0	0	0	1	13
205.04296875	0.100008034896746	419928	80	5	stim05_sf1_pattern2_cont1_shape2.png	0	80	0	256.59294671223	256.692954747126	0.100008034896746	stim05_sf1_pattern2_cont1_shape2.png	1	2	1	2	1	1	0	0	0	0	0	0	0	0	0	0	0	0	1	13
205.54296875	0.0999605293181958	420952	81	10	stim10_sf2_pattern1_cont2_shape1.png	0	81	0	257.092951697385	257.192912226703	0.0999605293181958	stim10_sf2_pattern1_cont2_shape1.png	2	1	2	1	1	4	0	0	0	0	0	0	0	0	0	0	0	0	1	13
206.04296875	0.100017418710195	421976	82	7	stim07_sf1_pattern2_cont2_shape2.png	0	82	0	257.592909176961	257.692926595671	0.100017418710195	stim07_sf1_pattern2_cont2_shape2.png	1	2	2	2	1	2	0	0	0	0	0	0	0	0	0	0	0	0	1	13
206.54296875	0.0999942524103972	423000	83	9	stim09_sf2_pattern1_cont1_shape2.png	0	83	0	258.092929117574	258.192923369985	0.0999942524103972	stim09_sf2_pattern1_cont1_shape2.png	2	1	1	2	1	1	0	0	0	0	0	0	0	0	0	0	0	0	1	13
207.04296875	0.100000410544453	424024	84	13	stim13_sf2_pattern2_cont1_shape2.png	0	84	0	258.592909470204	258.692909880749	0.100000410544453	stim13_sf2_pattern2_cont1_shape2.png	2	2	1	2	1	1	0	0	0	0	0	0	0	0	0	0	0	0	1	13
207.54296875	0.0999828158855962	425048	85	3	stim03_sf1_pattern1_cont2_shape2.png	0	85	0	259.092906831007	259.192889646893	0.0999828158855962	stim03_sf1_pattern1_cont2_shape2.png	1	1	2	2	1	2	0	0	0	0	0	0	0	0	0	0	0	0	1	13
208.04296875	0.0999860415722651	426072	86	2	stim02_sf1_pattern1_cont2_shape1.png	0	86	0	259.592875160622	259.692861202195	0.0999860415722651	stim02_sf1_pattern1_cont2_shape1.png	1	1	2	1	1	4	0	0	0	0	0	0	0	0	0	0	0	0	1	13
208.54296875	0.0999948388998746	427096	87	11	stim11_sf2_pattern1_cont2_shape2.png	0	87	0	260.092855806499	260.192850645399	0.0999948388998746	stim11_sf2_pattern1_cont2_shape2.png	2	1	2	2	1	2	0	0	0	0	0	0	0	0	0	0	0	0	1	13
209.04296875	0.100007155160711	428120	88	9	stim09_sf2_pattern1_cont1_shape2.png	0	88	0	260.592831760467	260.692838915627	0.100007155160711	stim09_sf2_pattern1_cont1_shape2.png	2	1	1	2	1	1	0	0	0	0	0	0	0	0	0	0	0	0	1	13
209.54248046875	0.100020057911024	429143	89	12	stim12_sf2_pattern2_cont1_shape1.png	0	89	0	261.092819150963	261.192839208874	0.100020057911024	stim12_sf2_pattern2_cont1_shape1.png	2	2	1	1	1	3	0	0	0	0	0	0	0	0	0	0	0	0	1	13
210.04248046875	0.0999963051217492	430167	90	14	stim14_sf2_pattern2_cont2_shape1.png	0	90	0	261.592817391498	261.69281369662	0.0999963051217492	stim14_sf2_pattern2_cont2_shape1.png	2	2	2	1	1	4	0	0	0	0	0	0	0	0	0	0	0	0	1	13
210.54248046875	0.100000997030293	431191	91	6	stim06_sf1_pattern2_cont2_shape1.png	0	91	0	262.092809767146	262.192810764176	0.100000997030293	stim06_sf1_pattern2_cont2_shape1.png	1	2	2	1	1	4	0	0	0	0	0	0	0	0	0	0	0	0	1	13
211.04248046875	0.100009794357902	432215	92	5	stim05_sf1_pattern2_cont1_shape2.png	0	92	0	262.592790999512	262.69280079387	0.100009794357902	stim05_sf1_pattern2_cont1_shape2.png	1	2	1	2	1	1	0	0	0	0	0	0	0	0	0	0	0	0	1	13
211.54248046875	0.0999998240549758	433239	93	4	stim04_sf1_pattern2_cont1_shape1.png	0	93	0	263.092788360311	263.192788184366	0.0999998240549758	stim04_sf1_pattern2_cont1_shape1.png	1	2	1	1	1	3	0	0	0	0	0	0	0	0	0	0	0	0	1	13
212.04248046875	0.10001038084738	434263	94	7	stim07_sf1_pattern2_cont2_shape2.png	0	94	0	263.592773991342	263.69278437219	0.10001038084738	stim07_sf1_pattern2_cont2_shape2.png	1	2	2	2	1	2	0	0	0	0	0	0	0	0	0	0	0	0	1	13
212.54248046875	0.0999766577515402	435287	95	11	stim11_sf2_pattern1_cont2_shape2.png	0	95	1	264.09279569142	264.192772349172	0.0999766577515402	stim11_sf2_pattern1_cont2_shape2.png	2	1	2	2	1	2	0	0	0	0	0	0	0	0	0	0	0	0	1	13
213.04248046875	0.100008914625505	436311	96	11	stim11_sf2_pattern1_cont2_shape2.png	0	96	1	264.592767833212	264.692776747837	0.100008914625505	stim11_sf2_pattern1_cont2_shape2.png	2	1	2	2	1	2	0	0	0	0	0	0	0	0	0	0	0	0	1	13
213.54248046875	0.100037066080404	437335	97	10	stim10_sf2_pattern1_cont2_shape1.png	0	97	2	265.092720914123	265.192757980203	0.100037066080404	stim10_sf2_pattern1_cont2_shape1.png	2	1	2	1	1	4	0	0	0	0	0	0	0	0	0	0	0	0	1	13
214.04248046875	0.100010967336857	438359	98	15	stim15_sf2_pattern2_cont2_shape2.png	0	98	2	265.592734696605	265.692745663942	0.100010967336857	stim15_sf2_pattern2_cont2_shape2.png	2	2	2	2	1	2	0	0	0	0	0	0	0	0	0	0	0	0	1	13
214.54248046875	0.0999948388998746	439383	99	10	stim10_sf2_pattern1_cont2_shape1.png	0	99	0	266.092747306109	266.192742145009	0.0999948388998746	stim10_sf2_pattern1_cont2_shape1.png	2	1	2	1	1	4	0	0	0	0	0	0	0	0	0	0	0	0	1	13
215.04248046875	0.100009501114982	440407	100	0	stim00_sf1_pattern1_cont1_shape1.png	0	100	0	266.592709770841	266.692719271956	0.100009501114982	stim00_sf1_pattern1_cont1_shape1.png	1	1	1	1	1	3	0	0	0	0	0	0	0	0	0	0	0	0	1	13
215.54248046875	0.100013606537686	441431	101	8	stim08_sf2_pattern1_cont1_shape1.png	0	101	0	267.092675461256	267.192689067793	0.100013606537686	stim08_sf2_pattern1_cont1_shape1.png	2	1	1	1	1	3	0	0	0	0	0	0	0	0	0	0	0	0	1	13
216.04248046875	0.100006275428314	442455	102	1	stim01_sf1_pattern1_cont1_shape2.png	0	102	0	267.592687484273	267.692693759702	0.100006275428314	stim01_sf1_pattern1_cont1_shape2.png	1	1	1	2	1	1	0	0	0	0	0	0	0	0	0	0	0	0	1	13
216.54248046875	0.100013020048209	443479	103	15	stim15_sf2_pattern2_cont2_shape2.png	0	103	0	268.092670476104	268.192683496152	0.100013020048209	stim15_sf2_pattern2_cont2_shape2.png	2	2	2	2	1	2	0	0	0	0	0	0	0	0	0	0	0	0	1	13
217.04248046875	0.100005395695916	444503	104	7	stim07_sf1_pattern2_cont2_shape2.png	0	104	0	268.592667250417	268.692672646113	0.100005395695916	stim07_sf1_pattern2_cont2_shape2.png	1	2	2	2	1	2	0	0	0	0	0	0	0	0	0	0	0	0	1	13
217.54248046875	0.0999754847762233	445527	105	3	stim03_sf1_pattern1_cont2_shape2.png	0	105	0	269.092668423393	269.192643908169	0.0999754847762233	stim03_sf1_pattern1_cont2_shape2.png	1	1	2	2	1	2	0	0	0	0	0	0	0	0	0	0	0	0	1	13
218.04248046875	0.100022403865296	446551	106	10	stim10_sf2_pattern1_cont2_shape1.png	0	106	0	269.592626196216	269.692648600081	0.100022403865296	stim10_sf2_pattern1_cont2_shape1.png	2	1	2	1	1	4	0	0	0	0	0	0	0	0	0	0	0	0	1	13
218.54248046875	0.0999986510760209	447575	107	4	stim04_sf1_pattern2_cont1_shape1.png	0	107	0	270.092621504307	270.192620155383	0.0999986510760209	stim04_sf1_pattern2_cont1_shape1.png	1	2	1	1	1	3	0	0	0	0	0	0	0	0	0	0	0	0	1	13
219.04248046875	0.10000744840363	448599	108	6	stim06_sf1_pattern2_cont2_shape1.png	0	108	0	270.592615346177	270.692622794581	0.10000744840363	stim06_sf1_pattern2_cont2_shape1.png	1	2	2	1	1	4	0	0	0	0	0	0	0	0	0	0	0	0	1	13
219.54248046875	0.100000703783735	449623	109	15	stim15_sf2_pattern2_cont2_shape2.png	0	109	0	271.092615932666	271.19261663645	0.100000703783735	stim15_sf2_pattern2_cont2_shape2.png	2	2	2	2	1	2	0	0	0	0	0	0	0	0	0	0	0	0	1	13
220.04248046875	0.100007741650188	450647	110	8	stim08_sf2_pattern1_cont1_shape1.png	0	110	0	271.59259247312	271.69260021477	0.100007741650188	stim08_sf2_pattern1_cont1_shape1.png	2	1	1	1	1	3	0	0	0	0	0	0	0	0	0	0	0	0	1	13
220.54248046875	0.10001829844623	451671	111	14	stim14_sf2_pattern2_cont2_shape1.png	0	111	0	272.092572239264	272.19259053771	0.10001829844623	stim14_sf2_pattern2_cont2_shape1.png	2	2	2	1	1	4	0	0	0	0	0	0	0	0	0	0	0	0	1	13
221.04248046875	0.099995425389352	452695	112	1	stim01_sf1_pattern1_cont1_shape2.png	0	112	0	272.592579863616	272.692575289006	0.099995425389352	stim01_sf1_pattern1_cont1_shape2.png	1	1	1	2	1	1	0	0	0	0	0	0	0	0	0	0	0	0	1	13
221.54248046875	0.0999960118751915	453719	113	9	stim09_sf2_pattern1_cont1_shape2.png	0	113	0	273.092567840602	273.192563852477	0.0999960118751915	stim09_sf2_pattern1_cont1_shape2.png	2	1	1	2	1	1	0	0	0	0	0	0	0	0	0	0	0	0	1	13
222.04248046875	0.0999848685969482	454743	114	5	stim05_sf1_pattern2_cont1_shape2.png	0	114	0	273.592541448612	273.692526317209	0.0999848685969482	stim05_sf1_pattern2_cont1_shape2.png	1	2	1	2	1	1	0	0	0	0	0	0	0	0	0	0	0	0	1	13
222.54248046875	0.100004515963519	455767	115	0	stim00_sf1_pattern1_cont1_shape1.png	0	115	0	274.092540568879	274.192545084843	0.100004515963519	stim00_sf1_pattern1_cont1_shape1.png	1	1	1	1	1	3	0	0	0	0	0	0	0	0	0	0	0	0	1	13
223.04248046875	0.0999634617619449	456791	116	11	stim11_sf2_pattern1_cont2_shape2.png	0	116	0	274.592519748534	274.692483210296	0.0999634617619449	stim11_sf2_pattern1_cont2_shape2.png	2	1	2	2	1	2	0	0	0	0	0	0	0	0	0	0	0	0	1	13
223.54248046875	0.0999772442446556	457815	117	2	stim02_sf1_pattern1_cont2_shape1.png	0	117	0	275.092497755213	275.192474999458	0.0999772442446556	stim02_sf1_pattern1_cont2_shape1.png	1	1	2	1	1	4	0	0	0	0	0	0	0	0	0	0	0	0	1	13
224.04248046875	0.100000703783735	458839	118	12	stim12_sf2_pattern2_cont1_shape1.png	0	118	0	275.592483386245	275.692484090028	0.100000703783735	stim12_sf2_pattern2_cont1_shape1.png	2	2	1	1	1	3	0	0	0	0	0	0	0	0	0	0	0	0	1	13
224.54248046875	0.0999986510760209	459863	119	13	stim13_sf2_pattern2_cont1_shape2.png	0	119	0	276.092482799755	276.192481450831	0.0999986510760209	stim13_sf2_pattern2_cont1_shape2.png	2	2	1	2	1	1	0	0	0	0	0	0	0	0	0	0	0	0	1	13
225.04248046875	0.100017711953114	460887	120	5	stim05_sf1_pattern2_cont1_shape2.png	0	120	0	276.592433827958	276.692451539911	0.100017711953114	stim05_sf1_pattern2_cont1_shape2.png	1	2	1	2	1	1	0	0	0	0	0	0	0	0	0	0	0	0	1	13
225.54248046875	0.0999983578294632	461911	121	6	stim06_sf1_pattern2_cont2_shape1.png	0	121	0	277.092450836128	277.192449193957	0.0999983578294632	stim06_sf1_pattern2_cont2_shape1.png	1	2	2	1	1	4	0	0	0	0	0	0	0	0	0	0	0	0	1	13
226.04248046875	0.10000187676269	462935	122	14	stim14_sf2_pattern2_cont2_shape1.png	0	122	0	277.592437933377	277.69243981014	0.10000187676269	stim14_sf2_pattern2_cont2_shape1.png	2	2	2	1	1	4	0	0	0	0	0	0	0	0	0	0	0	0	1	13
226.5419921875	0.100003929470404	463958	123	15	stim15_sf2_pattern2_cont2_shape2.png	0	123	0	278.092431482004	278.192435411474	0.100003929470404	stim15_sf2_pattern2_cont2_shape2.png	2	2	2	2	1	2	0	0	0	0	0	0	0	0	0	0	0	0	1	13
227.0419921875	0.0999930794350803	464982	124	13	stim13_sf2_pattern2_cont1_shape2.png	0	124	0	278.592419752229	278.692412831664	0.0999930794350803	stim13_sf2_pattern2_cont1_shape2.png	2	2	1	2	1	1	0	0	0	0	0	0	0	0	0	0	0	0	1	13
227.5419921875	0.0999960118788294	466006	125	10	stim10_sf2_pattern1_cont2_shape1.png	0	125	0	279.092435000934	279.192431012812	0.0999960118788294	stim10_sf2_pattern1_cont2_shape1.png	2	1	2	1	1	4	0	0	0	0	0	0	0	0	0	0	0	0	1	13
228.0419921875	0.0999957186322717	467030	126	4	stim04_sf1_pattern2_cont1_shape1.png	0	126	0	279.592426496849	279.692422215481	0.0999957186322717	stim04_sf1_pattern2_cont1_shape1.png	1	2	1	1	1	3	0	0	0	0	0	0	0	0	0	0	0	0	1	13
228.5419921875	0.0999977713436238	468054	127	0	stim00_sf1_pattern1_cont1_shape1.png	0	127	0	280.092409195437	280.19240696678	0.0999977713436238	stim00_sf1_pattern1_cont1_shape1.png	1	1	1	1	1	3	0	0	0	0	0	0	0	0	0	0	0	0	1	13
229.0419921875	0.0999930794350803	469078	128	2	stim02_sf1_pattern1_cont2_shape1.png	0	128	0	280.592381043982	280.692374123417	0.0999930794350803	stim02_sf1_pattern1_cont2_shape1.png	1	1	2	1	1	4	0	0	0	0	0	0	0	0	0	0	0	0	1	13
229.5419921875	0.100020351153944	470102	129	3	stim03_sf1_pattern1_cont2_shape2.png	0	129	0	281.092357291196	281.19237764235	0.100020351153944	stim03_sf1_pattern1_cont2_shape2.png	1	1	2	2	1	2	0	0	0	0	0	0	0	0	0	0	0	0	1	13
230.0419921875	0.100014193023526	471126	130	1	stim01_sf1_pattern1_cont1_shape2.png	0	130	0	281.592354065509	281.692368258533	0.100014193023526	stim01_sf1_pattern1_cont1_shape2.png	1	1	1	2	1	1	0	0	0	0	0	0	0	0	0	0	0	0	1	13
230.5419921875	0.0999995308084181	472150	131	12	stim12_sf2_pattern2_cont1_shape1.png	0	131	0	282.092354358752	282.192353889561	0.0999995308084181	stim12_sf2_pattern2_cont1_shape1.png	2	2	1	1	1	3	0	0	0	0	0	0	0	0	0	0	0	0	1	13
231.0419921875	0.100001290273212	473174	132	11	stim11_sf2_pattern1_cont2_shape2.png	0	132	0	282.592332365432	282.692333655705	0.100001290273212	stim11_sf2_pattern1_cont2_shape2.png	2	1	2	2	1	2	0	0	0	0	0	0	0	0	0	0	0	0	1	13
231.5419921875	0.0999921997026831	474198	133	9	stim09_sf2_pattern1_cont1_shape2.png	0	133	0	283.092337643826	283.192329843529	0.0999921997026831	stim09_sf2_pattern1_cont1_shape2.png	2	1	1	2	1	1	0	0	0	0	0	0	0	0	0	0	0	0	1	13
232.0419921875	0.100004222716962	475222	134	8	stim08_sf2_pattern1_cont1_shape1.png	0	134	0	283.592312131575	283.692316354292	0.100004222716962	stim08_sf2_pattern1_cont1_shape1.png	2	1	1	1	1	3	0	0	0	0	0	0	0	0	0	0	0	0	1	13
232.5419921875	0.0999995308084181	476246	135	7	stim07_sf1_pattern2_cont2_shape2.png	0	135	0	284.092305973445	284.192305504253	0.0999995308084181	stim07_sf1_pattern2_cont2_shape2.png	1	2	2	2	1	2	0	0	0	0	0	0	0	0	0	0	0	0	1	13
233.0419921875	0.0999995308084181	477270	136	8	stim08_sf2_pattern1_cont1_shape1.png	0	136	0	284.592286032832	284.69228556364	0.0999995308084181	stim08_sf2_pattern1_cont1_shape1.png	2	1	1	1	1	3	0	0	0	0	0	0	0	0	0	0	0	0	1	13
233.5419921875	0.0999963051217492	478294	137	13	stim13_sf2_pattern2_cont1_shape2.png	0	137	0	285.092283686878	285.192279991999	0.0999963051217492	stim13_sf2_pattern2_cont1_shape2.png	2	2	1	2	1	1	0	0	0	0	0	0	0	0	0	0	0	0	1	13
234.0419921875	0.100001290273212	479318	138	5	stim05_sf1_pattern2_cont1_shape2.png	0	138	0	285.592260227335	285.692261517608	0.100001290273212	stim05_sf1_pattern2_cont1_shape2.png	1	2	1	2	1	1	0	0	0	0	0	0	0	0	0	0	0	0	1	13
234.5419921875	0.0999992375618604	480342	139	9	stim09_sf2_pattern1_cont1_shape2.png	0	139	0	286.092261107067	286.192260344629	0.0999992375618604	stim09_sf2_pattern1_cont1_shape2.png	2	1	1	2	1	1	0	0	0	0	0	0	0	0	0	0	0	0	1	13
235.0419921875	0.0999998240549758	481366	140	1	stim01_sf1_pattern1_cont1_shape2.png	0	140	0	286.592239700232	286.692239524287	0.0999998240549758	stim01_sf1_pattern1_cont1_shape2.png	1	1	1	2	1	1	0	0	0	0	0	0	0	0	0	0	0	0	1	13
235.5419921875	0.0999957186322717	482390	141	0	stim00_sf1_pattern1_cont1_shape1.png	0	141	0	287.0922388205	287.192234539132	0.0999957186322717	stim00_sf1_pattern1_cont1_shape1.png	1	1	1	1	1	3	0	0	0	0	0	0	0	0	0	0	0	0	1	13
236.0419921875	0.100008914625505	483414	142	3	stim03_sf1_pattern1_cont2_shape2.png	0	142	0	287.592213894735	287.692222809361	0.100008914625505	stim03_sf1_pattern1_cont2_shape2.png	1	1	2	2	1	2	0	0	0	0	0	0	0	0	0	0	0	0	1	13
236.5419921875	0.0999801766884048	484438	143	6	stim06_sf1_pattern2_cont2_shape1.png	0	143	0	288.092226797482	288.19220697417	0.0999801766884048	stim06_sf1_pattern2_cont2_shape1.png	1	2	2	1	1	4	0	0	0	0	0	0	0	0	0	0	0	0	1	13
237.0419921875	0.0999869213046622	485462	144	14	stim14_sf2_pattern2_cont2_shape1.png	0	144	0	288.592183104083	288.692170025388	0.0999869213046622	stim14_sf2_pattern2_cont2_shape1.png	2	2	2	1	1	4	0	0	0	0	0	0	0	0	0	0	0	0	1	13
237.5419921875	0.100001290273212	486486	145	10	stim10_sf2_pattern1_cont2_shape1.png	0	145	0	289.092164922939	289.192166213212	0.100001290273212	stim10_sf2_pattern1_cont2_shape1.png	2	1	2	1	1	4	0	0	0	0	0	0	0	0	0	0	0	0	1	13
238.0419921875	0.0999637550048647	487510	146	11	stim11_sf2_pattern1_cont2_shape2.png	0	146	0	289.592173720266	289.692137475271	0.0999637550048647	stim11_sf2_pattern1_cont2_shape2.png	2	1	2	2	1	2	0	0	0	0	0	0	0	0	0	0	0	0	1	13
238.5419921875	0.099995425389352	488534	147	12	stim12_sf2_pattern2_cont1_shape1.png	0	147	0	290.092122402515	290.192117827904	0.099995425389352	stim12_sf2_pattern2_cont1_shape1.png	2	2	1	1	1	3	0	0	0	0	0	0	0	0	0	0	0	0	1	13
239.0419921875	0.0999939591674774	489558	148	2	stim02_sf1_pattern1_cont2_shape1.png	0	148	0	290.592112432209	290.692106391376	0.0999939591674774	stim02_sf1_pattern1_cont2_shape1.png	1	1	2	1	1	4	0	0	0	0	0	0	0	0	0	0	0	0	1	13
239.5419921875	0.0999860415722651	490582	149	4	stim04_sf1_pattern2_cont1_shape1.png	0	149	0	291.0921077403	291.192093781872	0.0999860415722651	stim04_sf1_pattern2_cont1_shape1.png	1	2	1	1	1	3	0	0	0	0	0	0	0	0	0	0	0	0	1	13
240.0419921875	0.0999995308084181	491606	150	7	stim07_sf1_pattern2_cont2_shape2.png	0	150	0	291.592079295602	291.692078826411	0.0999995308084181	stim07_sf1_pattern2_cont2_shape2.png	1	2	2	2	1	2	0	0	0	0	0	0	0	0	0	0	0	0	1	13
240.5419921875	0.100011847069254	492630	151	15	stim15_sf2_pattern2_cont2_shape2.png	0	151	0	292.092079882092	292.192091729161	0.100011847069254	stim15_sf2_pattern2_cont2_shape2.png	2	2	2	2	1	2	0	0	0	0	0	0	0	0	0	0	0	0	1	13
241.0419921875	0.100008328136028	493654	152	8	stim08_sf2_pattern1_cont1_shape1.png	0	152	0	292.592080761824	292.69208908996	0.100008328136028	stim08_sf2_pattern1_cont1_shape1.png	2	1	1	1	1	3	0	0	0	0	0	0	0	0	0	0	0	0	1	13
241.5419921875	0.0999963051217492	494678	153	14	stim14_sf2_pattern2_cont2_shape1.png	0	153	0	293.092080468581	293.192076773703	0.0999963051217492	stim14_sf2_pattern2_cont2_shape1.png	2	2	2	1	1	4	0	0	0	0	0	0	0	0	0	0	0	0	1	13
242.0419921875	0.0999930794350803	495702	154	9	stim09_sf2_pattern1_cont1_shape2.png	0	154	0	293.592071378007	293.692064457442	0.0999930794350803	stim09_sf2_pattern1_cont1_shape2.png	2	1	1	2	1	1	0	0	0	0	0	0	0	0	0	0	0	0	1	13
242.5419921875	0.0999992375654983	496726	155	6	stim06_sf1_pattern2_cont2_shape1.png	0	155	0	294.092055542813	294.192054780378	0.0999992375654983	stim06_sf1_pattern2_cont2_shape1.png	1	2	2	1	1	4	0	0	0	0	0	0	0	0	0	0	0	0	1	13
243.0419921875	0.0999992375654983	497750	156	7	stim07_sf1_pattern2_cont2_shape2.png	0	156	0	294.592068738806	294.692067976372	0.0999992375654983	stim07_sf1_pattern2_cont2_shape2.png	1	2	2	2	1	2	0	0	0	0	0	0	0	0	0	0	0	0	1	13
243.5419921875	0.0999968916112266	498774	157	1	stim01_sf1_pattern1_cont1_shape2.png	0	157	0	295.092040587355	295.192037478966	0.0999968916112266	stim01_sf1_pattern1_cont1_shape2.png	1	1	1	2	1	1	0	0	0	0	0	0	0	0	0	0	0	0	1	13
244.04150390625	0.100004515959881	499797	158	11	stim11_sf2_pattern1_cont2_shape2.png	0	158	0	295.592024165675	295.692028681635	0.100004515959881	stim11_sf2_pattern1_cont2_shape2.png	2	1	2	2	1	2	0	0	0	0	0	0	0	0	0	0	0	0	1	13
244.54150390625	0.0999957186322717	500821	159	3	stim03_sf1_pattern1_cont2_shape2.png	0	159	0	296.092026511629	296.192022230262	0.0999957186322717	stim03_sf1_pattern1_cont2_shape2.png	1	1	2	2	1	2	0	0	0	0	0	0	0	0	0	0	0	0	1	13
245.04150390625	0.100002756498725	501845	160	4	stim04_sf1_pattern2_cont1_shape1.png	0	160	0	296.592011262925	296.692014019423	0.100002756498725	stim04_sf1_pattern2_cont1_shape1.png	1	2	1	1	1	3	0	0	0	0	0	0	0	0	0	0	0	0	1	13
245.54150390625	0.0999916132132057	502869	161	2	stim02_sf1_pattern1_cont2_shape1.png	0	161	0	297.092004811551	297.191996424765	0.0999916132132057	stim02_sf1_pattern1_cont2_shape1.png	1	1	2	1	1	4	0	0	0	0	0	0	0	0	0	0	0	0	1	13
246.04150390625	0.0999919064597634	503893	162	12	stim12_sf2_pattern2_cont1_shape1.png	0	162	0	297.591976366853	297.691968273313	0.0999919064597634	stim12_sf2_pattern2_cont1_shape1.png	2	2	1	1	1	3	0	0	0	0	0	0	0	0	0	0	0	0	1	13
246.54150390625	0.0999968916112266	504917	163	15	stim15_sf2_pattern2_cont2_shape2.png	0	163	0	298.091977246586	298.191974138197	0.0999968916112266	stim15_sf2_pattern2_cont2_shape2.png	2	2	2	2	1	2	0	0	0	0	0	0	0	0	0	0	0	0	1	13
247.04150390625	0.0999977713436238	505941	164	13	stim13_sf2_pattern2_cont1_shape2.png	0	164	0	298.591966983036	298.69196475438	0.0999977713436238	stim13_sf2_pattern2_cont1_shape2.png	2	2	1	2	1	1	0	0	0	0	0	0	0	0	0	0	0	0	1	13
247.54150390625	0.0999971848541463	506965	165	0	stim00_sf1_pattern1_cont1_shape1.png	0	165	0	299.091952907311	299.191950092165	0.0999971848541463	stim00_sf1_pattern1_cont1_shape1.png	1	1	1	1	1	3	0	0	0	0	0	0	0	0	0	0	0	0	1	13
248.04150390625	0.10001038084738	507989	166	10	stim10_sf2_pattern1_cont2_shape1.png	0	166	0	299.591932086965	299.691942467813	0.10001038084738	stim10_sf2_pattern1_cont2_shape1.png	2	1	2	1	1	4	0	0	0	0	0	0	0	0	0	0	0	0	1	13
248.54150390625	0.0999968916112266	509013	167	5	stim05_sf1_pattern2_cont1_shape2.png	0	167	0	300.091930620743	300.191927512355	0.0999968916112266	stim05_sf1_pattern2_cont1_shape2.png	1	2	1	2	1	1	0	0	0	0	0	0	0	0	0	0	0	0	1	13
285.107421875	0.0999980645865435	583900	168	5	stim05_sf1_pattern2_cont1_shape2.png	1	0	0	336.657733174667	336.757731239253	0.0999980645865435	stim05_sf1_pattern2_cont1_shape2.png	1	2	1	2	1	1	0	0	0	0	0	0	0	0	0	0	0	0	1	13
285.607421875	0.0999898537484114	584924	169	1	stim01_sf1_pattern1_cont1_shape2.png	1	1	0	337.157731121955	337.257720975704	0.0999898537484114	stim01_sf1_pattern1_cont1_shape2.png	1	1	1	2	1	1	0	0	0	0	0	0	0	0	0	0	0	0	1	13
286.107421875	0.0999740185579867	585948	170	7	stim07_sf1_pattern2_cont2_shape2.png	1	2	0	337.657708542145	337.757682560703	0.0999740185579867	stim07_sf1_pattern2_cont2_shape2.png	1	2	2	2	1	2	0	0	0	0	0	0	0	0	0	0	0	0	1	13
286.607421875	0.0999980645865435	586972	171	15	stim15_sf2_pattern2_cont2_shape2.png	1	3	0	338.157699744817	338.257697809404	0.0999980645865435	stim15_sf2_pattern2_cont2_shape2.png	2	2	2	2	1	2	0	0	0	0	0	0	0	0	0	0	0	0	1	13
287.107421875	0.100002756495087	587996	172	3	stim03_sf1_pattern1_cont2_shape2.png	1	4	0	338.657682443405	338.7576851999	0.100002756495087	stim03_sf1_pattern1_cont2_shape2.png	1	1	2	2	1	2	0	0	0	0	0	0	0	0	0	0	0	0	1	13
287.607421875	0.0999998240549758	589020	173	11	stim11_sf2_pattern1_cont2_shape2.png	1	5	0	339.157675112296	339.257674936351	0.0999998240549758	stim11_sf2_pattern1_cont2_shape2.png	2	1	2	2	1	2	0	0	0	0	0	0	0	0	0	0	0	0	1	13
288.10693359375	0.0999948388998746	590043	174	9	stim09_sf2_pattern1_cont1_shape2.png	1	6	0	339.6576671947	339.7576620336	0.0999948388998746	stim09_sf2_pattern1_cont1_shape2.png	2	1	1	2	1	1	0	0	0	0	0	0	0	0	0	0	0	0	1	13
288.60693359375	0.0999804699313245	591067	175	8	stim08_sf2_pattern1_cont1_shape1.png	1	7	0	340.157652532485	340.257633002417	0.0999804699313245	stim08_sf2_pattern1_cont1_shape1.png	2	1	1	1	1	3	0	0	0	0	0	0	0	0	0	0	0	0	1	13
289.10693359375	0.0999927861921606	592091	176	2	stim02_sf1_pattern1_cont2_shape1.png	1	8	0	340.657644028401	340.757636814593	0.0999927861921606	stim02_sf1_pattern1_cont2_shape1.png	1	1	2	1	1	4	0	0	0	0	0	0	0	0	0	0	0	0	1	13
289.60693359375	0.0999960118751915	593115	177	4	stim04_sf1_pattern2_cont1_shape1.png	1	9	0	341.157629072943	341.257625084818	0.0999960118751915	stim04_sf1_pattern2_cont1_shape1.png	1	2	1	1	1	3	0	0	0	0	0	0	0	0	0	0	0	0	1	13
290.10693359375	0.100027975506237	594139	178	0	stim00_sf1_pattern1_cont1_shape1.png	1	10	0	341.657587432252	341.757615407758	0.100027975506237	stim00_sf1_pattern1_cont1_shape1.png	1	1	1	1	1	3	0	0	0	0	0	0	0	0	0	0	0	0	1	13
290.60693359375	0.10000129027685	595163	179	6	stim06_sf1_pattern2_cont2_shape1.png	1	11	0	342.157605613396	342.257606903673	0.10000129027685	stim06_sf1_pattern2_cont2_shape1.png	1	2	2	1	1	4	0	0	0	0	0	0	0	0	0	0	0	0	1	13
291.10693359375	0.100002756495087	596187	180	12	stim12_sf2_pattern2_cont1_shape1.png	1	12	0	342.657588018741	342.757590775236	0.100002756495087	stim12_sf2_pattern2_cont1_shape1.png	2	2	1	1	1	3	0	0	0	0	0	0	0	0	0	0	0	0	1	13
291.60693359375	0.100033547147177	597211	181	10	stim10_sf2_pattern1_cont2_shape1.png	1	13	0	343.157543152363	343.257576699511	0.100033547147177	stim10_sf2_pattern1_cont2_shape1.png	2	1	2	1	1	4	0	0	0	0	0	0	0	0	0	0	0	0	1	13
292.10693359375	0.0999875077941397	598235	182	14	stim14_sf2_pattern2_cont2_shape1.png	1	14	0	343.657562506487	343.757550014281	0.0999875077941397	stim14_sf2_pattern2_cont2_shape1.png	2	2	2	1	1	4	0	0	0	0	0	0	0	0	0	0	0	0	1	13
292.60693359375	0.100020057911024	599259	183	13	stim13_sf2_pattern2_cont1_shape2.png	1	15	0	344.157538167208	344.257558225119	0.100020057911024	stim13_sf2_pattern2_cont1_shape2.png	2	2	1	2	1	1	0	0	0	0	0	0	0	0	0	0	0	0	1	13
293.10693359375	0.0999968916112266	600283	184	6	stim06_sf1_pattern2_cont2_shape1.png	1	16	0	344.657549603737	344.757546495348	0.0999968916112266	stim06_sf1_pattern2_cont2_shape1.png	1	2	2	1	1	4	0	0	0	0	0	0	0	0	0	0	0	0	1	13
293.60693359375	0.0999746050438262	601307	185	5	stim05_sf1_pattern2_cont1_shape2.png	1	17	0	345.157537873965	345.257512479009	0.0999746050438262	stim05_sf1_pattern2_cont1_shape2.png	1	2	1	2	1	1	0	0	0	0	0	0	0	0	0	0	0	0	1	13
294.10693359375	0.100022403861658	602331	186	9	stim09_sf2_pattern1_cont1_shape2.png	1	18	0	345.657492714345	345.757515118206	0.100022403861658	stim09_sf2_pattern1_cont1_shape2.png	2	1	1	2	1	1	0	0	0	0	0	0	0	0	0	0	0	0	1	13
294.60693359375	0.099993372678	603355	187	1	stim01_sf1_pattern1_cont1_shape2.png	1	19	0	346.157476292665	346.257469665343	0.099993372678	stim01_sf1_pattern1_cont1_shape2.png	1	1	1	2	1	1	0	0	0	0	0	0	0	0	0	0	0	0	1	13
295.10693359375	0.100000703787373	604379	188	7	stim07_sf1_pattern2_cont2_shape2.png	1	20	0	346.657450487164	346.757451190952	0.100000703787373	stim07_sf1_pattern2_cont2_shape2.png	1	2	2	2	1	2	0	0	0	0	0	0	0	0	0	0	0	0	1	13
295.60693359375	0.100005102452997	605403	189	12	stim12_sf2_pattern2_cont1_shape1.png	1	21	0	347.157445208766	347.257450311219	0.100005102452997	stim12_sf2_pattern2_cont1_shape1.png	2	2	1	1	1	3	0	0	0	0	0	0	0	0	0	0	0	0	1	13
296.10693359375	0.100033547147177	606427	190	11	stim11_sf2_pattern1_cont2_shape2.png	1	22	0	347.657438757393	347.75747230454	0.100033547147177	stim11_sf2_pattern1_cont2_shape2.png	2	1	2	2	1	2	0	0	0	0	0	0	0	0	0	0	0	0	1	13
296.60693359375	0.099997478100704	607451	191	13	stim13_sf2_pattern2_cont1_shape2.png	1	23	0	348.15741881678	348.25741629488	0.099997478100704	stim13_sf2_pattern2_cont1_shape2.png	2	2	1	2	1	1	0	0	0	0	0	0	0	0	0	0	0	0	1	13
297.10693359375	0.099999530812056	608475	192	0	stim00_sf1_pattern1_cont1_shape1.png	1	24	0	348.657403274832	348.757402805644	0.099999530812056	stim00_sf1_pattern1_cont1_shape1.png	1	1	1	1	1	3	0	0	0	0	0	0	0	0	0	0	0	0	1	13
297.60693359375	0.0999490927897568	609499	193	4	stim04_sf1_pattern2_cont1_shape1.png	1	25	0	349.157443449301	349.257392542091	0.0999490927897568	stim04_sf1_pattern2_cont1_shape1.png	1	2	1	1	1	3	0	0	0	0	0	0	0	0	0	0	0	0	1	13
298.10693359375	0.0999930794350803	610523	194	14	stim14_sf2_pattern2_cont2_shape1.png	1	26	0	349.657411778917	349.757404858352	0.0999930794350803	stim14_sf2_pattern2_cont2_shape1.png	2	2	2	1	1	4	0	0	0	0	0	0	0	0	0	0	0	0	1	13
298.60693359375	0.0999781239734148	611547	195	8	stim08_sf2_pattern1_cont1_shape1.png	1	27	0	350.157418230294	350.257396354267	0.0999781239734148	stim08_sf2_pattern1_cont1_shape1.png	2	1	1	1	1	3	0	0	0	0	0	0	0	0	0	0	0	0	1	13
299.10693359375	0.100002756498725	612571	196	3	stim03_sf1_pattern1_cont2_shape2.png	1	28	0	350.657389199107	350.757391955605	0.100002756498725	stim03_sf1_pattern1_cont2_shape2.png	1	1	2	2	1	2	0	0	0	0	0	0	0	0	0	0	0	0	1	13
299.60693359375	0.0999968916112266	613595	197	15	stim15_sf2_pattern2_cont2_shape2.png	1	29	0	351.157402101857	351.257398993468	0.0999968916112266	stim15_sf2_pattern2_cont2_shape2.png	2	2	2	2	1	2	0	0	0	0	0	0	0	0	0	0	0	0	1	13
300.10693359375	0.0999971848541463	614619	198	10	stim10_sf2_pattern1_cont2_shape1.png	1	30	0	351.657390372086	351.75738755694	0.0999971848541463	stim10_sf2_pattern1_cont2_shape1.png	2	1	2	1	1	4	0	0	0	0	0	0	0	0	0	0	0	0	1	13
300.60693359375	0.0999869213046622	615643	199	4	stim04_sf1_pattern2_cont1_shape1.png	1	31	1	352.157370724715	352.25735764602	0.0999869213046622	stim04_sf1_pattern2_cont1_shape1.png	1	2	1	1	1	3	0	0	0	0	0	0	0	0	0	0	0	0	1	13
301.10693359375	0.100005688938836	616667	200	4	stim04_sf1_pattern2_cont1_shape1.png	1	32	1	352.657348144905	352.757353833844	0.100005688938836	stim04_sf1_pattern2_cont1_shape1.png	1	2	1	1	1	3	0	0	0	0	0	0	0	0	0	0	0	0	1	13
301.60693359375	0.100009207872063	617691	201	7	stim07_sf1_pattern2_cont2_shape2.png	1	33	2	353.15734638544	353.257355593312	0.100009207872063	stim07_sf1_pattern2_cont2_shape2.png	1	2	2	2	1	2	0	0	0	0	0	0	0	0	0	0	0	0	1	13
302.10693359375	0.100005395695916	618715	202	10	stim10_sf2_pattern1_cont2_shape1.png	1	34	2	353.657334655669	353.757340051365	0.100005395695916	stim10_sf2_pattern1_cont2_shape1.png	2	1	2	1	1	4	0	0	0	0	0	0	0	0	0	0	0	0	1	13
302.60693359375	0.100000410540815	619739	203	2	stim02_sf1_pattern1_cont2_shape1.png	1	35	0	354.157318233989	354.25731864453	0.100000410540815	stim02_sf1_pattern1_cont2_shape1.png	1	1	2	1	1	4	0	0	0	0	0	0	0	0	0	0	0	0	1	13
303.10693359375	0.100008621382585	620763	204	13	stim13_sf2_pattern2_cont1_shape2.png	1	36	0	354.657300932573	354.757309553956	0.100008621382585	stim13_sf2_pattern2_cont1_shape2.png	2	2	1	2	1	1	0	0	0	0	0	0	0	0	0	0	0	0	1	13
303.60693359375	0.0999921997026831	621787	205	15	stim15_sf2_pattern2_cont2_shape2.png	1	37	0	355.15730415826	355.257296357962	0.0999921997026831	stim15_sf2_pattern2_cont2_shape2.png	2	2	2	2	1	2	0	0	0	0	0	0	0	0	0	0	0	0	1	13
304.10693359375	0.0999957186322717	622811	206	1	stim01_sf1_pattern1_cont1_shape2.png	1	38	0	355.657288029826	355.757283748459	0.0999957186322717	stim01_sf1_pattern1_cont1_shape2.png	1	1	1	2	1	1	0	0	0	0	0	0	0	0	0	0	0	0	1	13
304.60693359375	0.0999974780970661	623835	207	10	stim10_sf2_pattern1_cont2_shape1.png	1	39	0	356.157274833833	356.25727231193	0.0999974780970661	stim10_sf2_pattern1_cont2_shape1.png	2	1	2	1	1	4	0	0	0	0	0	0	0	0	0	0	0	0	1	13
305.10693359375	0.0999983578331012	624859	208	6	stim06_sf1_pattern2_cont2_shape1.png	1	40	0	356.657264277037	356.75726263487	0.0999983578331012	stim06_sf1_pattern2_cont2_shape1.png	1	2	2	1	1	4	0	0	0	0	0	0	0	0	0	0	0	0	1	13
305.6064453125	0.099995425389352	625882	209	8	stim08_sf2_pattern1_cont1_shape1.png	1	41	0	357.157253720241	357.25724914563	0.099995425389352	stim08_sf2_pattern1_cont1_shape1.png	2	1	1	1	1	3	0	0	0	0	0	0	0	0	0	0	0	0	1	13
306.1064453125	0.100011847069254	626906	210	11	stim11_sf2_pattern1_cont2_shape2.png	1	42	0	357.657228794476	357.757240641546	0.100011847069254	stim11_sf2_pattern1_cont2_shape2.png	2	1	2	2	1	2	0	0	0	0	0	0	0	0	0	0	0	0	1	13
306.6064453125	0.100000410544453	627930	211	14	stim14_sf2_pattern2_cont2_shape1.png	1	43	0	358.157227328255	358.257227738799	0.100000410544453	stim14_sf2_pattern2_cont2_shape1.png	2	2	2	1	1	4	0	0	0	0	0	0	0	0	0	0	0	0	1	13
307.1064453125	0.100006861914153	628954	212	9	stim09_sf2_pattern1_cont1_shape2.png	1	44	0	358.65720914711	358.757216009024	0.100006861914153	stim09_sf2_pattern1_cont1_shape2.png	2	1	1	2	1	1	0	0	0	0	0	0	0	0	0	0	0	0	1	13
307.6064453125	0.100013606534048	629978	213	7	stim07_sf1_pattern2_cont2_shape2.png	1	45	0	359.157188033521	359.257201640055	0.100013606534048	stim07_sf1_pattern2_cont2_shape2.png	1	2	2	2	1	2	0	0	0	0	0	0	0	0	0	0	0	0	1	13
308.1064453125	0.100007448407268	631002	214	0	stim00_sf1_pattern1_cont1_shape1.png	1	46	0	359.657183928099	359.757191376506	0.100007448407268	stim00_sf1_pattern1_cont1_shape1.png	1	1	1	1	1	3	0	0	0	0	0	0	0	0	0	0	0	0	1	13
308.6064453125	0.100003342988202	632026	215	2	stim02_sf1_pattern1_cont2_shape1.png	1	47	0	360.157163107753	360.257166450741	0.100003342988202	stim02_sf1_pattern1_cont2_shape1.png	1	1	2	1	1	4	0	0	0	0	0	0	0	0	0	0	0	0	1	13
309.1064453125	0.100011847069254	633050	216	5	stim05_sf1_pattern2_cont1_shape2.png	1	48	0	360.657161641535	360.757173488604	0.100011847069254	stim05_sf1_pattern2_cont1_shape2.png	1	2	1	2	1	1	0	0	0	0	0	0	0	0	0	0	0	0	1	13
309.6064453125	0.0999599428287183	634074	217	12	stim12_sf2_pattern2_cont1_shape1.png	1	49	0	361.157164573975	361.257124516804	0.0999599428287183	stim12_sf2_pattern2_cont1_shape1.png	2	2	1	1	1	3	0	0	0	0	0	0	0	0	0	0	0	0	1	13
310.1064453125	0.0999693266458053	635098	218	3	stim03_sf1_pattern1_cont2_shape2.png	1	50	0	361.657133783327	361.757103109972	0.0999693266458053	stim03_sf1_pattern1_cont2_shape2.png	1	1	2	2	1	2	0	0	0	0	0	0	0	0	0	0	0	0	1	13
310.6064453125	0.0999631685153872	636122	219	4	stim04_sf1_pattern2_cont1_shape1.png	1	51	0	362.157096834544	362.257060003059	0.0999631685153872	stim04_sf1_pattern2_cont1_shape1.png	1	2	1	1	1	3	0	0	0	0	0	0	0	0	0	0	0	0	1	13
311.1064453125	0.0999904402342509	637146	220	9	stim09_sf2_pattern1_cont1_shape2.png	1	52	0	362.657085104773	362.757075545007	0.0999904402342509	stim09_sf2_pattern1_cont1_shape2.png	2	1	1	2	1	1	0	0	0	0	0	0	0	0	0	0	0	0	1	13
311.6064453125	0.0999971848577843	638170	221	3	stim03_sf1_pattern1_cont2_shape2.png	1	53	0	363.157053141142	363.257050325999	0.0999971848577843	stim03_sf1_pattern1_cont2_shape2.png	1	1	2	2	1	2	0	0	0	0	0	0	0	0	0	0	0	0	1	13
312.1064453125	0.100004515959881	639194	222	8	stim08_sf2_pattern1_cont1_shape1.png	1	54	0	363.657047862747	363.757052378707	0.100004515959881	stim08_sf2_pattern1_cont1_shape1.png	2	1	1	1	1	3	0	0	0	0	0	0	0	0	0	0	0	0	1	13
312.6064453125	0.0999880942836171	640218	223	12	stim12_sf2_pattern2_cont1_shape1.png	1	55	0	364.157046689768	364.257034784052	0.0999880942836171	stim12_sf2_pattern2_cont1_shape1.png	2	2	1	1	1	3	0	0	0	0	0	0	0	0	0	0	0	0	1	13
313.1064453125	0.10000158351977	641242	224	4	stim04_sf1_pattern2_cont1_shape1.png	1	56	0	364.65705490061	364.75705648413	0.10000158351977	stim04_sf1_pattern2_cont1_shape1.png	1	2	1	1	1	3	0	0	0	0	0	0	0	0	0	0	0	0	1	13
313.6064453125	0.0999904402342509	642266	225	6	stim06_sf1_pattern2_cont2_shape1.png	1	57	0	365.157049328969	365.257039769203	0.0999904402342509	stim06_sf1_pattern2_cont2_shape1.png	1	2	2	1	1	4	0	0	0	0	0	0	0	0	0	0	0	0	1	13
314.1064453125	0.099997478100704	643290	226	2	stim02_sf1_pattern1_cont2_shape1.png	1	58	0	365.657034373507	365.757031851608	0.099997478100704	stim02_sf1_pattern1_cont2_shape1.png	1	1	2	1	1	4	0	0	0	0	0	0	0	0	0	0	0	0	1	13
314.6064453125	0.100003342984564	644314	227	1	stim01_sf1_pattern1_cont1_shape2.png	1	59	0	366.157033200532	366.257036543517	0.100003342984564	stim01_sf1_pattern1_cont1_shape2.png	1	1	1	2	1	1	0	0	0	0	0	0	0	0	0	0	0	0	1	13
315.1064453125	0.0999939591674774	645338	228	13	stim13_sf2_pattern2_cont1_shape2.png	1	60	0	366.657030561331	366.757024520499	0.0999939591674774	stim13_sf2_pattern2_cont1_shape2.png	2	2	1	2	1	1	0	0	0	0	0	0	0	0	0	0	0	0	1	13
315.6064453125	0.0999951321427943	646362	229	7	stim07_sf1_pattern2_cont2_shape2.png	1	61	0	367.15702557618	367.257020708323	0.0999951321427943	stim07_sf1_pattern2_cont2_shape2.png	1	2	2	2	1	2	0	0	0	0	0	0	0	0	0	0	0	0	1	13
316.1064453125	0.0999927861885226	647386	230	5	stim05_sf1_pattern2_cont1_shape2.png	1	62	0	367.657008274768	367.757001060956	0.0999927861885226	stim05_sf1_pattern2_cont1_shape2.png	1	2	1	2	1	1	0	0	0	0	0	0	0	0	0	0	0	0	1	13
316.6064453125	0.0999963051217492	648410	231	10	stim10_sf2_pattern1_cont2_shape1.png	1	63	0	368.15699273282	368.256989037942	0.0999963051217492	stim10_sf2_pattern1_cont2_shape1.png	2	1	2	1	1	4	0	0	0	0	0	0	0	0	0	0	0	0	1	13
317.1064453125	0.0999842821038328	649434	232	14	stim14_sf2_pattern2_cont2_shape1.png	1	64	0	368.65699273282	368.756977014924	0.0999842821038328	stim14_sf2_pattern2_cont2_shape1.png	2	2	2	1	1	4	0	0	0	0	0	0	0	0	0	0	0	0	1	13
317.6064453125	0.0999960118751915	650458	233	0	stim00_sf1_pattern1_cont1_shape1.png	1	65	0	369.156971032742	369.256967044617	0.0999960118751915	stim00_sf1_pattern1_cont1_shape1.png	1	1	1	1	1	3	0	0	0	0	0	0	0	0	0	0	0	0	1	13
318.1064453125	0.0999986510760209	651482	234	15	stim15_sf2_pattern2_cont2_shape2.png	1	66	0	369.656959596214	369.75695824729	0.0999986510760209	stim15_sf2_pattern2_cont2_shape2.png	2	2	2	2	1	2	0	0	0	0	0	0	0	0	0	0	0	0	1	13
318.6064453125	0.0999921997026831	652506	235	11	stim11_sf2_pattern1_cont2_shape2.png	1	67	0	370.15695050564	370.256942705342	0.0999921997026831	stim11_sf2_pattern1_cont2_shape2.png	2	1	2	2	1	2	0	0	0	0	0	0	0	0	0	0	0	0	1	13
319.1064453125	0.100008914625505	653530	236	0	stim00_sf1_pattern1_cont1_shape1.png	1	68	0	370.656927046097	370.756935960722	0.100008914625505	stim00_sf1_pattern1_cont1_shape1.png	1	1	1	1	1	3	0	0	0	0	0	0	0	0	0	0	0	0	1	13
319.6064453125	0.0999960118751915	654554	237	14	stim14_sf2_pattern2_cont2_shape1.png	1	69	0	371.156927046097	371.256923057972	0.0999960118751915	stim14_sf2_pattern2_cont2_shape1.png	2	2	2	1	1	4	0	0	0	0	0	0	0	0	0	0	0	0	1	13
320.1064453125	0.100005102449359	655578	238	15	stim15_sf2_pattern2_cont2_shape2.png	1	70	0	371.656903000065	371.756908102514	0.100005102449359	stim15_sf2_pattern2_cont2_shape2.png	2	2	2	2	1	2	0	0	0	0	0	0	0	0	0	0	0	0	1	13
320.6064453125	0.100000703783735	656602	239	5	stim05_sf1_pattern2_cont1_shape2.png	1	71	0	372.156902120332	372.256902824116	0.100000703783735	stim05_sf1_pattern2_cont1_shape2.png	1	2	1	2	1	1	0	0	0	0	0	0	0	0	0	0	0	0	1	13
321.1064453125	0.0999919064597634	657626	240	11	stim11_sf2_pattern1_cont2_shape2.png	1	72	0	372.656894202733	372.756886109193	0.0999919064597634	stim11_sf2_pattern1_cont2_shape2.png	2	1	2	2	1	2	0	0	0	0	0	0	0	0	0	0	0	0	1	13
321.6064453125	0.0999916132132057	658650	241	8	stim08_sf2_pattern1_cont1_shape1.png	1	73	0	373.15688159323	373.256873206443	0.0999916132132057	stim08_sf2_pattern1_cont1_shape1.png	2	1	1	1	1	3	0	0	0	0	0	0	0	0	0	0	0	0	1	13
322.1064453125	0.100003342984564	659674	242	1	stim01_sf1_pattern1_cont1_shape2.png	1	74	0	373.656858133687	373.756861476671	0.100003342984564	stim01_sf1_pattern1_cont1_shape2.png	1	1	1	2	1	1	0	0	0	0	0	0	0	0	0	0	0	0	1	13
322.60595703125	0.100002756498725	660697	243	9	stim09_sf2_pattern1_cont1_shape2.png	1	75	0	374.156853148532	374.256855905031	0.100002756498725	stim09_sf2_pattern1_cont1_shape2.png	2	1	1	2	1	1	0	0	0	0	0	0	0	0	0	0	0	0	1	13
323.10595703125	0.10000217000561	661721	244	10	stim10_sf2_pattern1_cont2_shape1.png	1	76	0	374.656839366053	374.756841536058	0.10000217000561	stim10_sf2_pattern1_cont2_shape1.png	2	1	2	1	1	4	0	0	0	0	0	0	0	0	0	0	0	0	1	13
323.60595703125	0.0999971848541463	662745	245	3	stim03_sf1_pattern1_cont2_shape2.png	1	77	0	375.156830568721	375.256827753576	0.0999971848541463	stim03_sf1_pattern1_cont2_shape2.png	1	1	2	2	1	2	0	0	0	0	0	0	0	0	0	0	0	0	1	13
324.10595703125	0.10001038084738	663769	246	4	stim04_sf1_pattern2_cont1_shape1.png	1	78	0	375.65681268082	375.756823061667	0.10001038084738	stim04_sf1_pattern2_cont1_shape1.png	1	2	1	1	1	3	0	0	0	0	0	0	0	0	0	0	0	0	1	13
324.60595703125	0.100026802527282	664793	247	6	stim06_sf1_pattern2_cont2_shape1.png	1	79	0	376.156775438794	376.256802241322	0.100026802527282	stim06_sf1_pattern2_cont2_shape1.png	1	2	2	1	1	4	0	0	0	0	0	0	0	0	0	0	0	0	1	13
325.10595703125	0.100028268749156	665817	248	7	stim07_sf1_pattern2_cont2_shape2.png	1	80	0	376.656762242801	376.75679051155	0.100028268749156	stim07_sf1_pattern2_cont2_shape2.png	1	2	2	2	1	2	0	0	0	0	0	0	0	0	0	0	0	0	1	13
325.60595703125	0.0999945456533169	666841	249	13	stim13_sf2_pattern2_cont1_shape2.png	1	81	0	377.156748753565	377.256743299218	0.0999945456533169	stim13_sf2_pattern2_cont1_shape2.png	2	2	1	2	1	1	0	0	0	0	0	0	0	0	0	0	0	0	1	13
326.10595703125	0.100058766154689	667865	250	12	stim12_sf2_pattern2_cont1_shape1.png	1	82	0	377.656708579096	377.75676734525	0.100058766154689	stim12_sf2_pattern2_cont1_shape1.png	2	2	1	1	1	3	0	0	0	0	0	0	0	0	0	0	0	0	1	13
326.60595703125	0.100015072755923	668889	251	2	stim02_sf1_pattern1_cont2_shape1.png	1	83	0	378.156715616959	378.256730689714	0.100015072755923	stim02_sf1_pattern1_cont2_shape1.png	1	1	2	1	1	4	0	0	0	0	0	0	0	0	0	0	0	0	1	13
327.10595703125	0.0999593563392409	669913	252	15	stim15_sf2_pattern2_cont2_shape2.png	1	84	0	378.656732038638	378.756691394978	0.0999593563392409	stim15_sf2_pattern2_cont2_shape2.png	2	2	2	2	1	2	0	0	0	0	0	0	0	0	0	0	0	0	1	13
327.60595703125	0.099991319966648	670937	253	14	stim14_sf2_pattern2_cont2_shape1.png	1	85	0	379.156720015624	379.256711335591	0.099991319966648	stim14_sf2_pattern2_cont2_shape1.png	2	2	2	1	1	4	0	0	0	0	0	0	0	0	0	0	0	0	1	13
328.10595703125	0.100012140315812	671961	254	11	stim11_sf2_pattern1_cont2_shape2.png	1	86	0	379.656680134398	379.756692274714	0.100012140315812	stim11_sf2_pattern1_cont2_shape2.png	2	1	2	2	1	2	0	0	0	0	0	0	0	0	0	0	0	0	1	13
328.60595703125	0.099997478100704	672985	255	6	stim06_sf1_pattern2_cont2_shape1.png	1	87	0	380.156694210124	380.256691688224	0.099997478100704	stim06_sf1_pattern2_cont2_shape1.png	1	2	2	1	1	4	0	0	0	0	0	0	0	0	0	0	0	0	1	13
329.10595703125	0.100002463252167	674009	256	7	stim07_sf1_pattern2_cont2_shape2.png	1	88	0	380.656681307377	380.756683770629	0.100002463252167	stim07_sf1_pattern2_cont2_shape2.png	1	2	2	2	1	2	0	0	0	0	0	0	0	0	0	0	0	0	1	13
329.60595703125	0.0999963051217492	675033	257	3	stim03_sf1_pattern1_cont2_shape2.png	1	89	0	381.156668991116	381.256665296238	0.0999963051217492	stim03_sf1_pattern1_cont2_shape2.png	1	1	2	2	1	2	0	0	0	0	0	0	0	0	0	0	0	0	1	13
330.10595703125	0.100006861914153	676057	258	4	stim04_sf1_pattern2_cont1_shape1.png	1	90	0	381.656673683025	381.756680544939	0.100006861914153	stim04_sf1_pattern2_cont1_shape1.png	1	2	1	1	1	3	0	0	0	0	0	0	0	0	0	0	0	0	1	13
330.60595703125	0.0999919064561254	677081	259	10	stim10_sf2_pattern1_cont2_shape1.png	1	91	0	382.156675442489	382.256667348945	0.0999919064561254	stim10_sf2_pattern1_cont2_shape1.png	2	1	2	1	1	4	0	0	0	0	0	0	0	0	0	0	0	0	1	13
331.10595703125	0.0994948573716101	678105	260	0	stim00_sf1_pattern1_cont1_shape1.png	1	92	0	382.65721589173	382.756710749101	0.0994948573716101	stim00_sf1_pattern1_cont1_shape1.png	1	1	1	1	1	3	0	0	0	0	0	0	0	0	0	0	0	0	1	13
331.60595703125	0.0999977713436238	679129	261	5	stim05_sf1_pattern2_cont1_shape2.png	1	93	0	383.156640546418	383.256638317762	0.0999977713436238	stim05_sf1_pattern2_cont1_shape2.png	1	2	1	2	1	1	0	0	0	0	0	0	0	0	0	0	0	0	1	13
332.10595703125	0.0999995308084181	680153	262	2	stim02_sf1_pattern1_cont2_shape1.png	1	94	0	383.656625884203	383.756625415012	0.0999995308084181	stim02_sf1_pattern1_cont2_shape1.png	1	1	2	1	1	4	0	0	0	0	0	0	0	0	0	0	0	0	1	13
332.60595703125	0.0999974780970661	681177	263	1	stim01_sf1_pattern1_cont1_shape2.png	1	95	0	384.156615620654	384.256613098751	0.0999974780970661	stim01_sf1_pattern1_cont1_shape2.png	1	1	1	2	1	1	0	0	0	0	0	0	0	0	0	0	0	0	1	13
333.10595703125	0.10000158351977	682201	264	9	stim09_sf2_pattern1_cont1_shape2.png	1	96	0	384.65659978546	384.756601368979	0.10000158351977	stim09_sf2_pattern1_cont1_shape2.png	2	1	1	2	1	1	0	0	0	0	0	0	0	0	0	0	0	0	1	13
333.60595703125	0.100020644400502	683225	265	13	stim13_sf2_pattern2_cont1_shape2.png	1	97	0	385.156570167786	385.256590812187	0.100020644400502	stim13_sf2_pattern2_cont1_shape2.png	2	2	1	2	1	1	0	0	0	0	0	0	0	0	0	0	0	0	1	13
334.10595703125	0.0999702063782024	684249	266	12	stim12_sf2_pattern2_cont1_shape1.png	1	98	0	385.656568115079	385.756538321457	0.0999702063782024	stim12_sf2_pattern2_cont1_shape1.png	2	2	1	1	1	3	0	0	0	0	0	0	0	0	0	0	0	0	1	13
334.60595703125	0.0999983578331012	685273	267	8	stim08_sf2_pattern1_cont1_shape1.png	1	99	0	386.156570754276	386.256569112109	0.0999983578331012	stim08_sf2_pattern1_cont1_shape1.png	2	1	1	1	1	3	0	0	0	0	0	0	0	0	0	0	0	0	1	13
335.10595703125	0.100012433558732	686297	268	5	stim05_sf1_pattern2_cont1_shape2.png	1	100	0	386.656544069043	386.756556502602	0.100012433558732	stim05_sf1_pattern2_cont1_shape2.png	1	2	1	2	1	1	0	0	0	0	0	0	0	0	0	0	0	0	1	13
335.60595703125	0.0999983578294632	687321	269	7	stim07_sf1_pattern2_cont2_shape2.png	1	101	0	387.156544948779	387.256543306608	0.0999983578294632	stim07_sf1_pattern2_cont2_shape2.png	1	2	2	2	1	2	0	0	0	0	0	0	0	0	0	0	0	0	1	13
336.10595703125	0.100025043062487	688345	270	13	stim13_sf2_pattern2_cont1_shape2.png	1	102	0	387.656509759461	387.756534802524	0.100025043062487	stim13_sf2_pattern2_cont1_shape2.png	2	2	1	2	1	1	0	0	0	0	0	0	0	0	0	0	0	0	1	13
336.60595703125	0.0999992375654983	689369	271	15	stim15_sf2_pattern2_cont2_shape2.png	1	103	0	388.156521782479	388.256521020045	0.0999992375654983	stim15_sf2_pattern2_cont2_shape2.png	2	2	2	2	1	2	0	0	0	0	0	0	0	0	0	0	0	0	1	13
337.10595703125	0.100005688942474	690393	272	1	stim01_sf1_pattern1_cont1_shape2.png	1	104	0	388.656504481063	388.756510170006	0.100005688942474	stim01_sf1_pattern1_cont1_shape2.png	1	1	1	2	1	1	0	0	0	0	0	0	0	0	0	0	0	0	1	13
337.60595703125	0.0999963051217492	691417	273	9	stim09_sf2_pattern1_cont1_shape2.png	1	105	0	389.156499202669	389.256495507791	0.0999963051217492	stim09_sf2_pattern1_cont1_shape2.png	2	1	1	2	1	1	0	0	0	0	0	0	0	0	0	0	0	0	1	13
338.10595703125	0.0999945456569549	692441	274	2	stim02_sf1_pattern1_cont2_shape1.png	1	106	0	389.656487472894	389.756482018551	0.0999945456569549	stim02_sf1_pattern1_cont2_shape1.png	1	1	2	1	1	4	0	0	0	0	0	0	0	0	0	0	0	0	1	13
338.60595703125	0.100000117297895	693465	275	11	stim11_sf2_pattern1_cont2_shape2.png	1	107	0	390.156476036369	390.256476153667	0.100000117297895	stim11_sf2_pattern1_cont2_shape2.png	2	1	2	2	1	2	0	0	0	0	0	0	0	0	0	0	0	0	1	13
339.10595703125	0.100002170009247	694489	276	0	stim00_sf1_pattern1_cont1_shape1.png	1	108	0	390.656455509266	390.756457679276	0.100002170009247	stim00_sf1_pattern1_cont1_shape1.png	1	1	1	1	1	3	0	0	0	0	0	0	0	0	0	0	0	0	1	13
339.60595703125	0.0999980645865435	695513	277	14	stim14_sf2_pattern2_cont2_shape1.png	1	109	0	391.156430290259	391.256428354845	0.0999980645865435	stim14_sf2_pattern2_cont2_shape1.png	2	2	2	1	1	4	0	0	0	0	0	0	0	0	0	0	0	0	1	13
340.10546875	0.100013020044571	696536	278	3	stim03_sf1_pattern1_cont2_shape2.png	1	110	0	391.656407123959	391.756420144004	0.100013020044571	stim03_sf1_pattern1_cont2_shape2.png	1	1	2	2	1	2	0	0	0	0	0	0	0	0	0	0	0	0	1	13
340.60546875	0.100000117297895	697560	279	12	stim12_sf2_pattern2_cont1_shape1.png	1	111	0	392.156394221209	392.256394338507	0.100000117297895	stim12_sf2_pattern2_cont1_shape1.png	2	2	1	1	1	3	0	0	0	0	0	0	0	0	0	0	0	0	1	13
341.10546875	0.0999963051217492	698584	280	8	stim08_sf2_pattern1_cont1_shape1.png	1	112	0	392.656369881934	392.756366187055	0.0999963051217492	stim08_sf2_pattern1_cont1_shape1.png	2	1	1	1	1	3	0	0	0	0	0	0	0	0	0	0	0	0	1	13
341.60546875	0.0999960118788294	699608	281	10	stim10_sf2_pattern1_cont2_shape1.png	1	113	0	393.156360791359	393.256356803238	0.0999960118788294	stim10_sf2_pattern1_cont2_shape1.png	2	1	2	1	1	4	0	0	0	0	0	0	0	0	0	0	0	0	1	13
342.10546875	0.0999766577551782	700632	282	6	stim06_sf1_pattern2_cont2_shape1.png	1	114	0	393.656359325138	393.756335982893	0.0999766577551782	stim06_sf1_pattern2_cont2_shape1.png	1	2	2	1	1	4	0	0	0	0	0	0	0	0	0	0	0	0	1	13
342.60546875	0.0999977713436238	701656	283	4	stim04_sf1_pattern2_cont1_shape1.png	1	115	0	394.156336745327	394.256334516671	0.0999977713436238	stim04_sf1_pattern2_cont1_shape1.png	1	2	1	1	1	3	0	0	0	0	0	0	0	0	0	0	0	0	1	13
343.10546875	0.100006861917791	702680	284	3	stim03_sf1_pattern1_cont2_shape2.png	1	116	0	394.65631445876	394.756321320678	0.100006861917791	stim03_sf1_pattern1_cont2_shape2.png	1	1	2	2	1	2	0	0	0	0	0	0	0	0	0	0	0	0	1	13
343.60546875	0.100010674093937	703704	285	6	stim06_sf1_pattern2_cont2_shape1.png	1	117	0	395.156332346662	395.256343020756	0.100010674093937	stim06_sf1_pattern2_cont2_shape1.png	1	2	2	1	1	4	0	0	0	0	0	0	0	0	0	0	0	0	1	13
344.10546875	0.099995425389352	704728	286	14	stim14_sf2_pattern2_cont2_shape1.png	1	118	0	395.65633088044	395.756326305829	0.099995425389352	stim14_sf2_pattern2_cont2_shape1.png	2	2	2	1	1	4	0	0	0	0	0	0	0	0	0	0	0	0	1	13
344.60546875	0.0999839888609131	705752	287	9	stim09_sf2_pattern1_cont1_shape2.png	1	119	0	396.156328827732	396.256312816593	0.0999839888609131	stim09_sf2_pattern1_cont1_shape2.png	2	1	1	2	1	1	0	0	0	0	0	0	0	0	0	0	0	0	1	13
345.10546875	0.0999880942836171	706776	288	12	stim12_sf2_pattern2_cont1_shape1.png	1	120	0	396.656298916812	396.756287011096	0.0999880942836171	stim12_sf2_pattern2_cont1_shape1.png	2	2	1	1	1	3	0	0	0	0	0	0	0	0	0	0	0	0	1	13
345.60546875	0.100000997030293	707800	289	7	stim07_sf1_pattern2_cont2_shape2.png	1	121	0	397.156319737158	397.256320734188	0.100000997030293	stim07_sf1_pattern2_cont2_shape2.png	1	2	2	2	1	2	0	0	0	0	0	0	0	0	0	0	0	0	1	13
346.10546875	0.100011847069254	708824	290	0	stim00_sf1_pattern1_cont1_shape1.png	1	122	0	397.656290999217	397.756302846286	0.100011847069254	stim00_sf1_pattern1_cont1_shape1.png	1	1	1	1	1	3	0	0	0	0	0	0	0	0	0	0	0	0	1	13
346.60546875	0.0999880942799791	709848	291	5	stim05_sf1_pattern2_cont1_shape2.png	1	123	0	398.156293345171	398.256281439451	0.0999880942799791	stim05_sf1_pattern2_cont1_shape2.png	1	2	1	2	1	1	0	0	0	0	0	0	0	0	0	0	0	0	1	13
347.10546875	0.0999898537484114	710872	292	15	stim15_sf2_pattern2_cont2_shape2.png	1	124	0	398.656271938336	398.756261792085	0.0999898537484114	stim15_sf2_pattern2_cont2_shape2.png	2	2	2	2	1	2	0	0	0	0	0	0	0	0	0	0	0	0	1	13
347.60546875	0.1000042227206	711896	293	11	stim11_sf2_pattern1_cont2_shape2.png	1	125	0	399.156263434252	399.256267656972	0.1000042227206	stim11_sf2_pattern1_cont2_shape2.png	2	1	2	2	1	2	0	0	0	0	0	0	0	0	0	0	0	0	1	13
348.10546875	0.0999957186322717	712920	294	8	stim08_sf2_pattern1_cont1_shape1.png	1	126	0	399.656251411237	399.75624712987	0.0999957186322717	stim08_sf2_pattern1_cont1_shape1.png	2	1	1	1	1	3	0	0	0	0	0	0	0	0	0	0	0	0	1	13
348.60546875	0.0999866280581045	713944	295	13	stim13_sf2_pattern2_cont1_shape2.png	1	127	0	400.156237335512	400.25622396357	0.0999866280581045	stim13_sf2_pattern2_cont1_shape2.png	2	2	1	2	1	1	0	0	0	0	0	0	0	0	0	0	0	0	1	13
349.10546875	0.0999936659245577	714968	296	1	stim01_sf1_pattern1_cont1_shape2.png	1	128	0	400.656227071959	400.756220737883	0.0999936659245577	stim01_sf1_pattern1_cont1_shape2.png	1	1	1	2	1	1	0	0	0	0	0	0	0	0	0	0	0	0	1	13
349.60546875	0.10000158351977	715992	297	4	stim04_sf1_pattern2_cont1_shape1.png	1	129	0	401.156201266462	401.256202849981	0.10000158351977	stim04_sf1_pattern2_cont1_shape1.png	1	2	1	1	1	3	0	0	0	0	0	0	0	0	0	0	0	0	1	13
350.10546875	0.0999971848577843	717016	298	10	stim10_sf2_pattern1_cont2_shape1.png	1	130	0	401.656203905659	401.756201090517	0.0999971848577843	stim10_sf2_pattern1_cont2_shape1.png	2	1	2	1	1	4	0	0	0	0	0	0	0	0	0	0	0	0	1	13
350.60546875	0.0999951321427943	718040	299	2	stim02_sf1_pattern1_cont2_shape1.png	1	131	0	402.156192469134	402.256187601277	0.0999951321427943	stim02_sf1_pattern1_cont2_shape1.png	1	1	2	1	1	4	0	0	0	0	0	0	0	0	0	0	0	0	1	13
351.10546875	0.100003342984564	719064	300	15	stim15_sf2_pattern2_cont2_shape2.png	1	132	0	402.656171648789	402.756174991773	0.100003342984564	stim15_sf2_pattern2_cont2_shape2.png	2	2	2	2	1	2	0	0	0	0	0	0	0	0	0	0	0	0	1	13
351.60546875	0.0999886807694566	720088	301	12	stim12_sf2_pattern2_cont1_shape1.png	1	133	0	403.15616021226	403.25614889303	0.0999886807694566	stim12_sf2_pattern2_cont1_shape1.png	2	2	1	1	1	3	0	0	0	0	0	0	0	0	0	0	0	0	1	13
352.10546875	0.100005102449359	721112	302	14	stim14_sf2_pattern2_cont2_shape1.png	1	134	0	403.656146723024	403.756151825473	0.100005102449359	stim14_sf2_pattern2_cont2_shape1.png	2	2	2	1	1	4	0	0	0	0	0	0	0	0	0	0	0	0	1	13
352.60546875	0.0999898537484114	722136	303	2	stim02_sf1_pattern1_cont2_shape1.png	1	135	0	404.156150241954	404.256140095702	0.0999898537484114	stim02_sf1_pattern1_cont2_shape1.png	1	1	2	1	1	4	0	0	0	0	0	0	0	0	0	0	0	0	1	13
353.10546875	0.099995425389352	723160	304	8	stim08_sf2_pattern1_cont1_shape1.png	1	136	0	404.656131181076	404.756126606466	0.099995425389352	stim08_sf2_pattern1_cont1_shape1.png	2	1	1	1	1	3	0	0	0	0	0	0	0	0	0	0	0	0	1	13
353.60546875	0.0999927861885226	724184	305	11	stim11_sf2_pattern1_cont2_shape2.png	1	137	0	405.156122090502	405.256114876691	0.0999927861885226	stim11_sf2_pattern1_cont2_shape2.png	2	1	2	2	1	2	0	0	0	0	0	0	0	0	0	0	0	0	1	13
354.10546875	0.0999992375654983	725208	306	3	stim03_sf1_pattern1_cont2_shape2.png	1	138	0	405.656097751224	405.756096988789	0.0999992375654983	stim03_sf1_pattern1_cont2_shape2.png	1	1	2	2	1	2	0	0	0	0	0	0	0	0	0	0	0	0	1	13
354.60546875	0.100036186348007	726232	307	13	stim13_sf2_pattern2_cont1_shape2.png	1	139	0	406.156052591603	406.256088777951	0.100036186348007	stim13_sf2_pattern2_cont1_shape2.png	2	2	1	2	1	1	0	0	0	0	0	0	0	0	0	0	0	0	1	13
355.10546875	0.100015365998843	727256	308	5	stim05_sf1_pattern2_cont1_shape2.png	1	140	0	406.656067840308	406.756083206306	0.100015365998843	stim05_sf1_pattern2_cont1_shape2.png	1	2	1	2	1	1	0	0	0	0	0	0	0	0	0	0	0	0	1	13
355.60546875	0.100012726801651	728280	309	7	stim07_sf1_pattern2_cont2_shape2.png	1	141	0	407.156054937557	407.256067664359	0.100012726801651	stim07_sf1_pattern2_cont2_shape2.png	1	2	2	2	1	2	0	0	0	0	0	0	0	0	0	0	0	0	1	13
356.10546875	0.0999722590895544	729304	310	1	stim01_sf1_pattern1_cont1_shape2.png	1	142	0	407.656048779427	407.756021038516	0.0999722590895544	stim01_sf1_pattern1_cont1_shape2.png	1	1	1	2	1	1	0	0	0	0	0	0	0	0	0	0	0	0	1	13
356.60546875	0.0999534914517426	730328	311	6	stim06_sf1_pattern2_cont2_shape1.png	1	143	0	408.156046726719	408.256000218171	0.0999534914517426	stim06_sf1_pattern2_cont2_shape1.png	1	2	2	1	1	4	0	0	0	0	0	0	0	0	0	0	0	0	1	13
357.10546875	0.0999790037094499	731352	312	9	stim09_sf2_pattern1_cont1_shape2.png	1	144	0	408.656008604958	408.755987608667	0.0999790037094499	stim09_sf2_pattern1_cont1_shape2.png	2	1	1	2	1	1	0	0	0	0	0	0	0	0	0	0	0	0	1	13
357.60498046875	0.0999763645086205	732375	313	10	stim10_sf2_pattern1_cont2_shape1.png	1	145	0	409.156001273852	409.25597763836	0.0999763645086205	stim10_sf2_pattern1_cont2_shape1.png	2	1	2	1	1	4	0	0	0	0	0	0	0	0	0	0	0	0	1	13
358.10498046875	0.0999537847019383	733399	314	4	stim04_sf1_pattern2_cont1_shape1.png	1	146	0	409.656010950912	409.755964735614	0.0999537847019383	stim04_sf1_pattern2_cont1_shape1.png	1	2	1	1	1	3	0	0	0	0	0	0	0	0	0	0	0	0	1	13
358.60498046875	0.0999798834418471	734423	315	0	stim00_sf1_pattern1_cont1_shape1.png	1	147	0	410.155978107552	410.255957990994	0.0999798834418471	stim00_sf1_pattern1_cont1_shape1.png	1	1	1	1	1	3	0	0	0	0	0	0	0	0	0	0	0	0	1	13
359.10498046875	0.100009207872063	735447	316	15	stim15_sf2_pattern2_cont2_shape2.png	1	148	0	410.655971949422	410.755981157294	0.100009207872063	stim15_sf2_pattern2_cont2_shape2.png	2	2	2	2	1	2	0	0	0	0	0	0	0	0	0	0	0	0	1	13
359.60498046875	0.0999995308084181	736471	317	11	stim11_sf2_pattern1_cont2_shape2.png	1	149	0	411.155962272362	411.25596180317	0.0999995308084181	stim11_sf2_pattern1_cont2_shape2.png	2	1	2	2	1	2	0	0	0	0	0	0	0	0	0	0	0	0	1	13
360.10498046875	0.100003049741645	737495	318	3	stim03_sf1_pattern1_cont2_shape2.png	1	150	0	411.655943211481	411.755946261223	0.100003049741645	stim03_sf1_pattern1_cont2_shape2.png	1	1	2	2	1	2	0	0	0	0	0	0	0	0	0	0	0	0	1	13
360.60498046875	0.100003636227484	738519	319	5	stim05_sf1_pattern2_cont1_shape2.png	1	151	0	412.155939106062	412.255942742289	0.100003636227484	stim05_sf1_pattern2_cont1_shape2.png	1	2	1	2	1	1	0	0	0	0	0	0	0	0	0	0	0	0	1	13
361.10498046875	0.0999916132132057	739543	320	0	stim00_sf1_pattern1_cont1_shape1.png	1	152	0	412.655956700717	412.75594831393	0.0999916132132057	stim00_sf1_pattern1_cont1_shape1.png	1	1	1	1	1	3	0	0	0	0	0	0	0	0	0	0	0	0	1	13
361.60498046875	0.0999960118788294	740567	321	14	stim14_sf2_pattern2_cont2_shape1.png	1	153	0	413.15591799247	413.255914004349	0.0999960118788294	stim14_sf2_pattern2_cont2_shape1.png	2	2	2	1	1	4	0	0	0	0	0	0	0	0	0	0	0	0	1	13
362.10498046875	0.0999971848541463	741591	322	10	stim10_sf2_pattern1_cont2_shape1.png	1	154	0	413.655918872206	413.75591605706	0.0999971848541463	stim10_sf2_pattern1_cont2_shape1.png	2	1	2	1	1	4	0	0	0	0	0	0	0	0	0	0	0	0	1	13
362.60498046875	0.0999921997026831	742615	323	6	stim06_sf1_pattern2_cont2_shape1.png	1	155	0	414.155910074875	414.255902274577	0.0999921997026831	stim06_sf1_pattern2_cont2_shape1.png	1	2	2	1	1	4	0	0	0	0	0	0	0	0	0	0	0	0	1	13
363.10498046875	0.0999945456569549	743639	324	13	stim13_sf2_pattern2_cont1_shape2.png	1	156	0	414.65590831541	414.755902861067	0.0999945456569549	stim13_sf2_pattern2_cont1_shape2.png	2	2	1	2	1	1	0	0	0	0	0	0	0	0	0	0	0	0	1	13
363.60498046875	0.099995425389352	744663	325	7	stim07_sf1_pattern2_cont2_shape2.png	1	157	0	415.155885442353	415.255880867742	0.099995425389352	stim07_sf1_pattern2_cont2_shape2.png	1	2	2	2	1	2	0	0	0	0	0	0	0	0	0	0	0	0	1	13
364.10498046875	0.100008034893108	745687	326	8	stim08_sf2_pattern1_cont1_shape1.png	1	158	0	415.655859343613	415.755867378506	0.100008034893108	stim08_sf2_pattern1_cont1_shape1.png	2	1	1	1	1	3	0	0	0	0	0	0	0	0	0	0	0	0	1	13
364.60498046875	0.100018005199672	746711	327	12	stim12_sf2_pattern2_cont1_shape1.png	1	159	0	416.155838230025	416.255856235224	0.100018005199672	stim12_sf2_pattern2_cont1_shape1.png	2	2	1	1	1	3	0	0	0	0	0	0	0	0	0	0	0	0	1	13
365.10498046875	0.100009207872063	747735	328	4	stim04_sf1_pattern2_cont1_shape1.png	1	160	0	416.655837057046	416.755846264918	0.100009207872063	stim04_sf1_pattern2_cont1_shape1.png	1	2	1	1	1	3	0	0	0	0	0	0	0	0	0	0	0	0	1	13
365.60498046875	0.0999496792792343	748759	329	1	stim01_sf1_pattern1_cont1_shape2.png	1	161	0	417.155839109757	417.255788789036	0.0999496792792343	stim01_sf1_pattern1_cont1_shape2.png	1	1	1	2	1	1	0	0	0	0	0	0	0	0	0	0	0	0	1	13
366.10498046875	0.10004674314041	749783	330	9	stim09_sf2_pattern1_cont1_shape2.png	1	162	0	417.655778701432	417.755825444572	0.10004674314041	stim09_sf2_pattern1_cont1_shape2.png	2	1	1	2	1	1	0	0	0	0	0	0	0	0	0	0	0	0	1	13
366.60498046875	0.099995425389352	750807	331	2	stim02_sf1_pattern1_cont2_shape1.png	1	163	0	418.155812424524	418.255807849913	0.099995425389352	stim02_sf1_pattern1_cont2_shape1.png	1	1	2	1	1	4	0	0	0	0	0	0	0	0	0	0	0	0	1	13
391.87939453125	0.0999927861921606	802569	332	7	stim07_sf1_pattern2_cont2_shape2.png	2	0	0	443.430223985855	443.530216772047	0.0999927861921606	stim07_sf1_pattern2_cont2_shape2.png	1	2	2	2	1	2	0	0	0	0	0	0	0	0	0	0	0	0	1	13
392.37939453125	0.099993372678	803593	333	12	stim12_sf2_pattern2_cont1_shape1.png	2	1	0	443.930216361507	444.030209734185	0.099993372678	stim12_sf2_pattern2_cont1_shape1.png	2	2	1	1	1	3	0	0	0	0	0	0	0	0	0	0	0	0	1	13
392.87939453125	0.0999810564171639	804617	334	2	stim02_sf1_pattern1_cont2_shape1.png	2	2	0	444.430188503298	444.530169559715	0.0999810564171639	stim02_sf1_pattern1_cont2_shape1.png	1	1	2	1	1	4	0	0	0	0	0	0	0	0	0	0	0	0	1	13
393.37939453125	0.100021817375819	805641	335	15	stim15_sf2_pattern2_cont2_shape2.png	2	3	0	444.930157712646	445.030179530022	0.100021817375819	stim15_sf2_pattern2_cont2_shape2.png	2	2	2	2	1	2	0	0	0	0	0	0	0	0	0	0	0	0	1	13
393.87939453125	0.0999828158819582	806665	336	14	stim14_sf2_pattern2_cont2_shape1.png	2	4	0	445.430179999214	445.530162815096	0.0999828158819582	stim14_sf2_pattern2_cont2_shape1.png	2	2	2	1	1	4	0	0	0	0	0	0	0	0	0	0	0	0	1	13
394.37939453125	0.100004515963519	807689	337	9	stim09_sf2_pattern1_cont1_shape2.png	2	5	0	445.930136305811	446.030140821775	0.100004515963519	stim09_sf2_pattern1_cont1_shape2.png	2	1	1	2	1	1	0	0	0	0	0	0	0	0	0	0	0	0	1	13
394.87939453125	0.0999795901952893	808713	338	10	stim10_sf2_pattern1_cont2_shape1.png	2	6	0	446.430142170699	446.530121760894	0.0999795901952893	stim10_sf2_pattern1_cont2_shape1.png	2	1	2	1	1	4	0	0	0	0	0	0	0	0	0	0	0	0	1	13
395.37939453125	0.0999578901173663	809737	339	4	stim04_sf1_pattern2_cont1_shape1.png	2	7	0	446.930132786882	447.030090676999	0.0999578901173663	stim04_sf1_pattern2_cont1_shape1.png	1	2	1	1	1	3	0	0	0	0	0	0	0	0	0	0	0	0	1	13
395.87890625	0.0999754847762233	810760	340	1	stim01_sf1_pattern1_cont1_shape2.png	2	8	0	447.430120763864	447.53009624864	0.0999754847762233	stim01_sf1_pattern1_cont1_shape2.png	1	1	1	2	1	1	0	0	0	0	0	0	0	0	0	0	0	0	1	13
396.37890625	0.0999936659209197	811784	341	8	stim08_sf2_pattern1_cont1_shape1.png	2	9	0	447.930114019247	448.030107685168	0.0999936659209197	stim08_sf2_pattern1_cont1_shape1.png	2	1	1	1	1	3	0	0	0	0	0	0	0	0	0	0	0	0	1	13
396.87890625	0.0999948388998746	812808	342	6	stim06_sf1_pattern2_cont2_shape1.png	2	10	0	448.4300984773	448.5300933162	0.0999948388998746	stim06_sf1_pattern2_cont2_shape1.png	1	2	2	1	1	4	0	0	0	0	0	0	0	0	0	0	0	0	1	13
397.37890625	0.0999951321464323	813832	343	3	stim03_sf1_pattern1_cont2_shape2.png	2	11	0	448.930086454282	449.030081586428	0.0999951321464323	stim03_sf1_pattern1_cont2_shape2.png	1	1	2	2	1	2	0	0	0	0	0	0	0	0	0	0	0	0	1	13
397.87890625	0.0999971848541463	814856	344	5	stim05_sf1_pattern2_cont1_shape2.png	2	12	0	449.430072965046	449.5300701499	0.0999971848541463	stim05_sf1_pattern2_cont1_shape2.png	1	2	1	2	1	1	0	0	0	0	0	0	0	0	0	0	0	0	1	13
398.37890625	0.0999968916075886	815880	345	11	stim11_sf2_pattern1_cont2_shape2.png	2	13	0	449.930062115007	450.030059006614	0.0999968916075886	stim11_sf2_pattern1_cont2_shape2.png	2	1	2	2	1	2	0	0	0	0	0	0	0	0	0	0	0	0	1	13
398.87890625	0.0999763645086205	816904	346	13	stim13_sf2_pattern2_cont1_shape2.png	2	14	0	450.430051558211	450.530027922719	0.0999763645086205	stim13_sf2_pattern2_cont1_shape2.png	2	2	1	2	1	1	0	0	0	0	0	0	0	0	0	0	0	0	1	13
399.37890625	0.0999977713436238	817928	347	0	stim00_sf1_pattern1_cont1_shape1.png	2	15	0	450.930037482485	451.030035253829	0.0999977713436238	stim00_sf1_pattern1_cont1_shape1.png	1	1	1	1	1	3	0	0	0	0	0	0	0	0	0	0	0	0	1	13
399.87890625	0.0999760712657007	818952	348	3	stim03_sf1_pattern1_cont2_shape2.png	2	16	0	451.430028685154	451.53000475642	0.0999760712657007	stim03_sf1_pattern1_cont2_shape2.png	1	1	2	2	1	2	0	0	0	0	0	0	0	0	0	0	0	0	1	13
400.37890625	0.0999968916112266	819976	349	5	stim05_sf1_pattern2_cont1_shape2.png	2	17	0	451.930011676985	452.030008568596	0.0999968916112266	stim05_sf1_pattern2_cont1_shape2.png	1	2	1	2	1	1	0	0	0	0	0	0	0	0	0	0	0	0	1	13
400.87890625	0.0999766577551782	821000	350	11	stim11_sf2_pattern1_cont2_shape2.png	2	18	0	452.430003759389	452.529980417145	0.0999766577551782	stim11_sf2_pattern1_cont2_shape2.png	2	1	2	2	1	2	0	0	0	0	0	0	0	0	0	0	0	0	1	13
401.37890625	0.0999822293961188	822024	351	7	stim07_sf1_pattern2_cont2_shape2.png	2	19	0	452.929995548551	453.029977777947	0.0999822293961188	stim07_sf1_pattern2_cont2_shape2.png	1	2	2	2	1	2	0	0	0	0	0	0	0	0	0	0	0	0	1	13
401.87890625	0.099989267258934	823048	352	2	stim02_sf1_pattern1_cont2_shape1.png	2	20	0	453.429972089005	453.529961356264	0.099989267258934	stim02_sf1_pattern1_cont2_shape1.png	1	1	2	1	1	4	0	0	0	0	0	0	0	0	0	0	0	0	1	13
402.37890625	0.0999798834418471	824072	353	0	stim00_sf1_pattern1_cont1_shape1.png	2	21	0	453.929969743051	454.029949626492	0.0999798834418471	stim00_sf1_pattern1_cont1_shape1.png	1	1	1	1	1	3	0	0	0	0	0	0	0	0	0	0	0	0	1	13
402.87890625	0.0999889740123763	825096	354	14	stim14_sf2_pattern2_cont2_shape1.png	2	22	0	454.429943057821	454.529932031834	0.0999889740123763	stim14_sf2_pattern2_cont2_shape1.png	2	2	2	1	1	4	0	0	0	0	0	0	0	0	0	0	0	0	1	13
403.37890625	0.100024749819568	826120	355	1	stim01_sf1_pattern1_cont1_shape2.png	2	23	0	454.929899950908	455.029924700728	0.100024749819568	stim01_sf1_pattern1_cont1_shape2.png	1	1	1	2	1	1	0	0	0	0	0	0	0	0	0	0	0	0	1	13
403.87890625	0.0999854550827877	827144	356	13	stim13_sf2_pattern2_cont1_shape2.png	2	24	0	455.42990874824	455.529894203322	0.0999854550827877	stim13_sf2_pattern2_cont1_shape2.png	2	2	1	2	1	1	0	0	0	0	0	0	0	0	0	0	0	0	1	13
404.37890625	0.100003049741645	828168	357	15	stim15_sf2_pattern2_cont2_shape2.png	2	25	0	455.929893499535	456.029896549277	0.100003049741645	stim15_sf2_pattern2_cont2_shape2.png	2	2	2	2	1	2	0	0	0	0	0	0	0	0	0	0	0	0	1	13
404.87890625	0.0999977713436238	829192	358	9	stim09_sf2_pattern1_cont1_shape2.png	2	26	0	456.429876784608	456.529874555952	0.0999977713436238	stim09_sf2_pattern1_cont1_shape2.png	2	1	1	2	1	1	0	0	0	0	0	0	0	0	0	0	0	0	1	13
405.37890625	0.0999986510760209	830216	359	6	stim06_sf1_pattern2_cont2_shape1.png	2	27	0	456.929880303542	457.029878954618	0.0999986510760209	stim06_sf1_pattern2_cont2_shape1.png	1	2	2	1	1	4	0	0	0	0	0	0	0	0	0	0	0	0	1	13
405.87890625	0.0999869213046622	831240	360	4	stim04_sf1_pattern2_cont1_shape1.png	2	28	1	457.429869746746	457.52985666805	0.0999869213046622	stim04_sf1_pattern2_cont1_shape1.png	1	2	1	1	1	3	0	0	0	0	0	0	0	0	0	0	0	0	1	13
406.37890625	0.0999983578331012	832264	361	4	stim04_sf1_pattern2_cont1_shape1.png	2	29	1	457.929852445333	458.029850803166	0.0999983578331012	stim04_sf1_pattern2_cont1_shape1.png	1	2	1	1	1	3	0	0	0	0	0	0	0	0	0	0	0	0	1	13
406.87890625	0.0999919064561254	833288	362	5	stim05_sf1_pattern2_cont1_shape2.png	2	30	2	458.429861535908	458.529853442364	0.0999919064561254	stim05_sf1_pattern2_cont1_shape2.png	1	2	1	2	1	1	0	0	0	0	0	0	0	0	0	0	0	0	1	13
407.37890625	0.10002474981593	834312	363	13	stim13_sf2_pattern2_cont1_shape2.png	2	31	2	458.929841302051	459.029866051867	0.10002474981593	stim13_sf2_pattern2_cont1_shape2.png	2	2	1	2	1	1	0	0	0	0	0	0	0	0	0	0	0	0	1	13
407.87890625	0.0999707928676798	835336	364	8	stim08_sf2_pattern1_cont1_shape1.png	2	32	0	459.429844820981	459.529815613849	0.0999707928676798	stim08_sf2_pattern1_cont1_shape1.png	2	1	1	1	1	3	0	0	0	0	0	0	0	0	0	0	0	0	1	13
408.37890625	0.0999878010370594	836360	365	12	stim12_sf2_pattern2_cont1_shape1.png	2	33	0	459.929824880368	460.029812681405	0.0999878010370594	stim12_sf2_pattern2_cont1_shape1.png	2	2	1	1	1	3	0	0	0	0	0	0	0	0	0	0	0	0	1	13
408.87890625	0.0999980645865435	837384	366	10	stim10_sf2_pattern1_cont2_shape1.png	2	34	0	460.429815789797	460.529813854384	0.0999980645865435	stim10_sf2_pattern1_cont2_shape1.png	2	1	2	1	1	4	0	0	0	0	0	0	0	0	0	0	0	0	1	13
409.37890625	0.100022110622376	838408	367	4	stim04_sf1_pattern2_cont1_shape1.png	2	35	0	460.929778254525	461.029800365148	0.100022110622376	stim04_sf1_pattern2_cont1_shape1.png	1	2	1	1	1	3	0	0	0	0	0	0	0	0	0	0	0	0	1	13
409.87890625	0.100000997030293	839432	368	2	stim02_sf1_pattern1_cont2_shape1.png	2	36	0	461.429794382962	461.529795379993	0.100000997030293	stim02_sf1_pattern1_cont2_shape1.png	1	1	2	1	1	4	0	0	0	0	0	0	0	0	0	0	0	0	1	13
410.37890625	0.100007155160711	840456	369	12	stim12_sf2_pattern2_cont1_shape1.png	2	37	0	461.929761832846	462.029768988006	0.100007155160711	stim12_sf2_pattern2_cont1_shape1.png	2	2	1	1	1	3	0	0	0	0	0	0	0	0	0	0	0	0	1	13
410.87890625	0.099973725311429	841480	370	13	stim13_sf2_pattern2_cont1_shape2.png	2	38	0	462.429773269374	462.529746994685	0.099973725311429	stim13_sf2_pattern2_cont1_shape2.png	2	2	1	2	1	1	0	0	0	0	0	0	0	0	0	0	0	0	1	13
411.37890625	0.0999968916112266	842504	371	10	stim10_sf2_pattern1_cont2_shape1.png	2	39	0	462.929755088226	463.029751979837	0.0999968916112266	stim10_sf2_pattern1_cont2_shape1.png	2	1	2	1	1	4	0	0	0	0	0	0	0	0	0	0	0	0	1	13
411.87890625	0.0999998240549758	843528	372	11	stim11_sf2_pattern1_cont2_shape2.png	2	40	0	463.429722538109	463.529722362164	0.0999998240549758	stim11_sf2_pattern1_cont2_shape2.png	2	1	2	2	1	2	0	0	0	0	0	0	0	0	0	0	0	0	1	13
412.37890625	0.100005102449359	844552	373	9	stim09_sf2_pattern1_cont1_shape2.png	2	41	0	463.929717552957	464.029722655407	0.100005102449359	stim09_sf2_pattern1_cont1_shape2.png	2	1	1	2	1	1	0	0	0	0	0	0	0	0	0	0	0	0	1	13
412.87890625	0.0999728455790319	845576	374	6	stim06_sf1_pattern2_cont2_shape1.png	2	42	0	464.429726350285	464.529699195864	0.0999728455790319	stim06_sf1_pattern2_cont2_shape1.png	1	2	2	1	1	4	0	0	0	0	0	0	0	0	0	0	0	0	1	13
413.37841796875	0.0999998240549758	846599	375	8	stim08_sf2_pattern1_cont1_shape1.png	2	43	0	464.929693800168	465.029693624223	0.0999998240549758	stim08_sf2_pattern1_cont1_shape1.png	2	1	1	1	1	3	0	0	0	0	0	0	0	0	0	0	0	0	1	13
413.87841796875	0.0999836956179934	847623	376	4	stim04_sf1_pattern2_cont1_shape1.png	2	44	0	465.4296946799	465.529678375518	0.0999836956179934	stim04_sf1_pattern2_cont1_shape1.png	1	2	1	1	1	3	0	0	0	0	0	0	0	0	0	0	0	0	1	13
414.37841796875	0.0999719658429967	848647	377	15	stim15_sf2_pattern2_cont2_shape2.png	2	45	0	465.929684709597	466.02965667544	0.0999719658429967	stim15_sf2_pattern2_cont2_shape2.png	2	2	2	2	1	2	0	0	0	0	0	0	0	0	0	0	0	0	1	13
414.87841796875	0.0999825226426765	849671	378	0	stim00_sf1_pattern1_cont1_shape1.png	2	46	0	466.429674446044	466.529656968687	0.0999825226426765	stim00_sf1_pattern1_cont1_shape1.png	1	1	1	1	1	3	0	0	0	0	0	0	0	0	0	0	0	0	1	13
415.37841796875	0.0999960118751915	850695	379	3	stim03_sf1_pattern1_cont2_shape2.png	2	47	0	466.929661543298	467.029657555173	0.0999960118751915	stim03_sf1_pattern1_cont2_shape2.png	1	1	2	2	1	2	0	0	0	0	0	0	0	0	0	0	0	0	1	13
415.87841796875	0.0999810564171639	851719	380	1	stim01_sf1_pattern1_cont1_shape2.png	2	48	0	467.429651572991	467.529632629408	0.0999810564171639	stim01_sf1_pattern1_cont1_shape2.png	1	1	1	2	1	1	0	0	0	0	0	0	0	0	0	0	0	0	1	13
416.37841796875	0.100009207872063	852743	381	7	stim07_sf1_pattern2_cont2_shape2.png	2	49	0	467.929589991687	468.029599199559	0.100009207872063	stim07_sf1_pattern2_cont2_shape2.png	1	2	2	2	1	2	0	0	0	0	0	0	0	0	0	0	0	0	1	13
416.87841796875	0.0999790037058119	853767	382	14	stim14_sf2_pattern2_cont2_shape1.png	2	50	0	468.429601134972	468.529580138678	0.0999790037058119	stim14_sf2_pattern2_cont2_shape1.png	2	2	2	1	1	4	0	0	0	0	0	0	0	0	0	0	0	0	1	13
417.37841796875	0.0999875077941397	854791	383	5	stim05_sf1_pattern2_cont1_shape2.png	2	51	0	468.929585006535	469.02957251433	0.0999875077941397	stim05_sf1_pattern2_cont1_shape2.png	1	2	1	2	1	1	0	0	0	0	0	0	0	0	0	0	0	0	1	13
417.87841796875	0.100000117297895	855815	384	1	stim01_sf1_pattern1_cont1_shape2.png	2	52	0	469.429556561838	469.529556679136	0.100000117297895	stim01_sf1_pattern1_cont1_shape2.png	1	1	1	2	1	1	0	0	0	0	0	0	0	0	0	0	0	0	1	13
418.37841796875	0.0999939591674774	856839	385	0	stim00_sf1_pattern1_cont1_shape1.png	2	53	0	469.929546298288	470.029540257456	0.0999939591674774	stim00_sf1_pattern1_cont1_shape1.png	1	1	1	1	1	3	0	0	0	0	0	0	0	0	0	0	0	0	1	13
418.87841796875	0.0999743117972685	857863	386	13	stim13_sf2_pattern2_cont1_shape2.png	2	54	0	470.429543072602	470.529517384399	0.0999743117972685	stim13_sf2_pattern2_cont1_shape2.png	2	2	1	2	1	1	0	0	0	0	0	0	0	0	0	0	0	0	1	13
419.37841796875	0.0999924929492408	858887	387	11	stim11_sf2_pattern1_cont2_shape2.png	2	55	0	470.929508763016	471.029501255965	0.0999924929492408	stim11_sf2_pattern1_cont2_shape2.png	2	1	2	2	1	2	0	0	0	0	0	0	0	0	0	0	0	0	1	13
419.87841796875	0.09998516183623	859911	388	7	stim07_sf1_pattern2_cont2_shape2.png	2	56	0	471.429523718478	471.529508880314	0.09998516183623	stim07_sf1_pattern2_cont2_shape2.png	1	2	2	2	1	2	0	0	0	0	0	0	0	0	0	0	0	0	1	13
420.37841796875	0.099997478100704	860935	389	9	stim09_sf2_pattern1_cont1_shape2.png	2	57	0	471.929525771186	472.029523249286	0.099997478100704	stim09_sf2_pattern1_cont1_shape2.png	2	1	1	2	1	1	0	0	0	0	0	0	0	0	0	0	0	0	1	13
420.87841796875	0.100008034893108	861959	390	5	stim05_sf1_pattern2_cont1_shape2.png	2	58	0	472.429492341336	472.529500376229	0.100008034893108	stim05_sf1_pattern2_cont1_shape2.png	1	2	1	2	1	1	0	0	0	0	0	0	0	0	0	0	0	0	1	13
421.37841796875	0.099993372681638	862983	391	12	stim12_sf2_pattern2_cont1_shape1.png	2	59	0	472.929512575192	473.029505947874	0.099993372681638	stim12_sf2_pattern2_cont1_shape1.png	2	2	1	1	1	3	0	0	0	0	0	0	0	0	0	0	0	0	1	13
421.87841796875	0.0999693266458053	864007	392	8	stim08_sf2_pattern1_cont1_shape1.png	2	60	0	473.429509935995	473.529479262641	0.0999693266458053	stim08_sf2_pattern1_cont1_shape1.png	2	1	1	1	1	3	0	0	0	0	0	0	0	0	0	0	0	0	1	13
422.37841796875	0.0999989443225786	865031	393	4	stim04_sf1_pattern2_cont1_shape1.png	2	61	0	473.929507003551	474.029505947874	0.0999989443225786	stim04_sf1_pattern2_cont1_shape1.png	1	2	1	1	1	3	0	0	0	0	0	0	0	0	0	0	0	0	1	13
422.87841796875	0.099993372681638	866055	394	3	stim03_sf1_pattern1_cont2_shape2.png	2	62	0	474.429493221069	474.52948659375	0.099993372681638	stim03_sf1_pattern1_cont2_shape2.png	1	1	2	2	1	2	0	0	0	0	0	0	0	0	0	0	0	0	1	13
423.37841796875	0.0999945456569549	867079	395	2	stim02_sf1_pattern1_cont2_shape1.png	2	63	0	474.92948237103	475.029476916687	0.0999945456569549	stim02_sf1_pattern1_cont2_shape1.png	1	1	2	1	1	4	0	0	0	0	0	0	0	0	0	0	0	0	1	13
423.87841796875	0.0999960118788294	868103	396	6	stim06_sf1_pattern2_cont2_shape1.png	2	64	0	475.429461257441	475.52945726932	0.0999960118788294	stim06_sf1_pattern2_cont2_shape1.png	1	2	2	1	1	4	0	0	0	0	0	0	0	0	0	0	0	0	1	13
424.37841796875	0.100003049741645	869127	397	10	stim10_sf2_pattern1_cont2_shape1.png	2	65	0	475.92944894118	476.029451990922	0.100003049741645	stim10_sf2_pattern1_cont2_shape1.png	2	1	2	1	1	4	0	0	0	0	0	0	0	0	0	0	0	0	1	13
424.87841796875	0.0999957186322717	870151	398	15	stim15_sf2_pattern2_cont2_shape2.png	2	66	0	476.429436918166	476.529432636798	0.0999957186322717	stim15_sf2_pattern2_cont2_shape2.png	2	2	2	2	1	2	0	0	0	0	0	0	0	0	0	0	0	0	1	13
425.37841796875	0.100031787682383	871175	399	14	stim14_sf2_pattern2_cont2_shape1.png	2	67	0	476.929390878809	477.029422666492	0.100031787682383	stim14_sf2_pattern2_cont2_shape1.png	2	2	2	1	1	4	0	0	0	0	0	0	0	0	0	0	0	0	1	13
425.87841796875	0.100008621382585	872199	400	4	stim04_sf1_pattern2_cont1_shape1.png	2	68	0	477.429412872134	477.529421493517	0.100008621382585	stim04_sf1_pattern2_cont1_shape1.png	1	2	1	1	1	3	0	0	0	0	0	0	0	0	0	0	0	0	1	13
426.37841796875	0.0999968916112266	873223	401	11	stim11_sf2_pattern1_cont2_shape2.png	2	69	0	477.929402608581	478.029399500192	0.0999968916112266	stim11_sf2_pattern1_cont2_shape2.png	2	1	2	2	1	2	0	0	0	0	0	0	0	0	0	0	0	0	1	13
426.87841796875	0.10000187676269	874247	402	12	stim12_sf2_pattern2_cont1_shape1.png	2	70	0	478.429390292324	478.529392169086	0.10000187676269	stim12_sf2_pattern2_cont1_shape1.png	2	2	1	1	1	3	0	0	0	0	0	0	0	0	0	0	0	0	1	13
427.37841796875	0.0999901469913311	875271	403	2	stim02_sf1_pattern1_cont2_shape1.png	2	71	0	478.929383547704	479.029373694695	0.0999901469913311	stim02_sf1_pattern1_cont2_shape1.png	1	1	2	1	1	4	0	0	0	0	0	0	0	0	0	0	0	0	1	13
427.87841796875	0.0999746050438262	876295	404	15	stim15_sf2_pattern2_cont2_shape2.png	2	72	0	479.429370644953	479.529345249997	0.0999746050438262	stim15_sf2_pattern2_cont2_shape2.png	2	2	2	2	1	2	0	0	0	0	0	0	0	0	0	0	0	0	1	13
428.37841796875	0.0999951321427943	877319	405	0	stim00_sf1_pattern1_cont1_shape1.png	2	73	0	479.929354809763	480.029349941906	0.0999951321427943	stim00_sf1_pattern1_cont1_shape1.png	1	1	1	1	1	3	0	0	0	0	0	0	0	0	0	0	0	0	1	13
428.87841796875	0.0999983578294632	878343	406	9	stim09_sf2_pattern1_cont1_shape2.png	2	74	0	480.42934161377	480.529339971599	0.0999983578294632	stim09_sf2_pattern1_cont1_shape2.png	2	1	1	2	1	1	0	0	0	0	0	0	0	0	0	0	0	0	1	13
429.37841796875	0.100003929474042	879367	407	14	stim14_sf2_pattern2_cont2_shape1.png	2	75	0	480.929322846132	481.029326775606	0.100003929474042	stim14_sf2_pattern2_cont2_shape1.png	2	2	2	1	1	4	0	0	0	0	0	0	0	0	0	0	0	0	1	13
429.87841796875	0.099960236075276	880391	408	8	stim08_sf2_pattern1_cont1_shape1.png	2	76	0	481.4293219664	481.529282202475	0.099960236075276	stim08_sf2_pattern1_cont1_shape1.png	2	1	1	1	1	3	0	0	0	0	0	0	0	0	0	0	0	0	1	13
430.37841796875	0.0999866280617425	881415	409	6	stim06_sf1_pattern2_cont2_shape1.png	2	77	0	481.929290296015	482.029276924077	0.0999866280617425	stim06_sf1_pattern2_cont2_shape1.png	1	2	2	1	1	4	0	0	0	0	0	0	0	0	0	0	0	0	1	13
430.8779296875	0.0999787104628922	882438	410	5	stim05_sf1_pattern2_cont1_shape2.png	2	78	0	482.429298506857	482.52927721732	0.0999787104628922	stim05_sf1_pattern2_cont1_shape2.png	1	2	1	2	1	1	0	0	0	0	0	0	0	0	0	0	0	0	1	13
431.3779296875	0.0999948388998746	883462	411	3	stim03_sf1_pattern1_cont2_shape2.png	2	79	0	482.929285897353	483.029280736253	0.0999948388998746	stim03_sf1_pattern1_cont2_shape2.png	1	1	2	2	1	2	0	0	0	0	0	0	0	0	0	0	0	0	1	13
431.8779296875	0.0999795901952893	884486	412	1	stim01_sf1_pattern1_cont1_shape2.png	2	80	0	483.429273581092	483.529253171288	0.0999795901952893	stim01_sf1_pattern1_cont1_shape2.png	1	1	1	2	1	1	0	0	0	0	0	0	0	0	0	0	0	0	1	13
432.3779296875	0.10001008760446	885510	413	10	stim10_sf2_pattern1_cont2_shape1.png	2	81	0	483.929228714715	484.029238802319	0.10001008760446	stim10_sf2_pattern1_cont2_shape1.png	2	1	2	1	1	4	0	0	0	0	0	0	0	0	0	0	0	0	1	13
432.8779296875	0.0999772442446556	886534	414	7	stim07_sf1_pattern2_cont2_shape2.png	2	82	0	484.429246895859	484.529224140104	0.0999772442446556	stim07_sf1_pattern2_cont2_shape2.png	1	2	2	2	1	2	0	0	0	0	0	0	0	0	0	0	0	0	1	13
433.3779296875	0.0999839888645511	887558	415	13	stim13_sf2_pattern2_cont1_shape2.png	2	83	0	484.929225195781	485.029209184646	0.0999839888645511	stim13_sf2_pattern2_cont1_shape2.png	2	2	1	2	1	1	0	0	0	0	0	0	0	0	0	0	0	0	1	13
433.8779296875	0.0999980645865435	888582	416	8	stim08_sf2_pattern1_cont1_shape1.png	2	84	0	485.429202322728	485.529200387315	0.0999980645865435	stim08_sf2_pattern1_cont1_shape1.png	2	1	1	1	1	3	0	0	0	0	0	0	0	0	0	0	0	0	1	13
434.3779296875	0.100010674093937	889606	417	3	stim03_sf1_pattern1_cont2_shape2.png	2	85	0	485.929163614481	486.029174288575	0.100010674093937	stim03_sf1_pattern1_cont2_shape2.png	1	1	2	2	1	2	0	0	0	0	0	0	0	0	0	0	0	0	1	13
434.8779296875	0.0999919064597634	890630	418	6	stim06_sf1_pattern2_cont2_shape1.png	2	86	0	486.429179449671	486.529171356131	0.0999919064597634	stim06_sf1_pattern2_cont2_shape1.png	1	2	2	1	1	4	0	0	0	0	0	0	0	0	0	0	0	0	1	13
435.3779296875	0.0999963051217492	891654	419	0	stim00_sf1_pattern1_cont1_shape1.png	2	87	0	486.929168892879	487.029165198001	0.0999963051217492	stim00_sf1_pattern1_cont1_shape1.png	1	1	1	1	1	3	0	0	0	0	0	0	0	0	0	0	0	0	1	13
435.8779296875	0.0999930794314423	892678	420	4	stim04_sf1_pattern2_cont1_shape1.png	2	88	0	487.429163321238	487.529156400669	0.0999930794314423	stim04_sf1_pattern2_cont1_shape1.png	1	2	1	1	1	3	0	0	0	0	0	0	0	0	0	0	0	0	1	13
436.3779296875	0.0999661009591364	893702	421	15	stim15_sf2_pattern2_cont2_shape2.png	2	89	0	487.929146313068	488.029112414028	0.0999661009591364	stim15_sf2_pattern2_cont2_shape2.png	2	2	2	2	1	2	0	0	0	0	0	0	0	0	0	0	0	0	1	13
436.8779296875	0.100044690432696	894726	422	1	stim01_sf1_pattern1_cont1_shape2.png	2	90	0	488.429116695392	488.529161385824	0.100044690432696	stim01_sf1_pattern1_cont1_shape2.png	1	1	1	2	1	1	0	0	0	0	0	0	0	0	0	0	0	0	1	13
437.3779296875	0.0999763645086205	895750	423	14	stim14_sf2_pattern2_cont2_shape1.png	2	91	0	488.929147192801	489.02912355731	0.0999763645086205	stim14_sf2_pattern2_cont2_shape1.png	2	2	2	1	1	4	0	0	0	0	0	0	0	0	0	0	0	0	1	13
437.8779296875	0.0999760712657007	896774	424	2	stim02_sf1_pattern1_cont2_shape1.png	2	92	0	489.429138981959	489.529115053225	0.0999760712657007	stim02_sf1_pattern1_cont2_shape1.png	1	1	2	1	1	4	0	0	0	0	0	0	0	0	0	0	0	0	1	13
438.3779296875	0.100005688942474	897798	425	7	stim07_sf1_pattern2_cont2_shape2.png	2	93	0	489.929122853522	490.029128542465	0.100005688942474	stim07_sf1_pattern2_cont2_shape2.png	1	2	2	2	1	2	0	0	0	0	0	0	0	0	0	0	0	0	1	13
438.8779296875	0.099993372678	898822	426	12	stim12_sf2_pattern2_cont1_shape1.png	2	94	0	490.42911229673	490.529105669408	0.099993372678	stim12_sf2_pattern2_cont1_shape1.png	2	2	1	1	1	3	0	0	0	0	0	0	0	0	0	0	0	0	1	13
439.3779296875	0.0999968916075886	899846	427	9	stim09_sf2_pattern1_cont1_shape2.png	2	95	0	490.92909587505	491.029092766657	0.0999968916075886	stim09_sf2_pattern1_cont1_shape2.png	2	1	1	2	1	1	0	0	0	0	0	0	0	0	0	0	0	0	1	13
439.8779296875	0.0999470400784048	900870	428	11	stim11_sf2_pattern1_cont2_shape2.png	2	96	0	491.429090010162	491.529037050241	0.0999470400784048	stim11_sf2_pattern1_cont2_shape2.png	2	1	2	2	1	2	0	0	0	0	0	0	0	0	0	0	0	0	1	13
440.3779296875	0.0999971848541463	901894	429	5	stim05_sf1_pattern2_cont1_shape2.png	2	97	0	491.929071242528	492.029068427382	0.0999971848541463	stim05_sf1_pattern2_cont1_shape2.png	1	2	1	2	1	1	0	0	0	0	0	0	0	0	0	0	0	0	1	13
440.8779296875	0.0999754847798613	902918	430	13	stim13_sf2_pattern2_cont1_shape2.png	2	98	0	492.429062445197	492.529037929977	0.0999754847798613	stim13_sf2_pattern2_cont1_shape2.png	2	2	1	2	1	1	0	0	0	0	0	0	0	0	0	0	0	0	1	13
441.3779296875	0.0999836956179934	903942	431	10	stim10_sf2_pattern1_cont2_shape1.png	2	99	0	492.929061272222	493.02904496784	0.0999836956179934	stim10_sf2_pattern1_cont2_shape1.png	2	1	2	1	1	4	0	0	0	0	0	0	0	0	0	0	0	0	1	13
441.8779296875	0.0999631685153872	904966	432	6	stim06_sf1_pattern2_cont2_shape1.png	2	100	0	493.429039278901	493.529002447416	0.0999631685153872	stim06_sf1_pattern2_cont2_shape1.png	1	2	2	1	1	4	0	0	0	0	0	0	0	0	0	0	0	0	1	13
442.3779296875	0.099997478100704	905990	433	5	stim05_sf1_pattern2_cont1_shape2.png	2	101	0	493.929026669393	494.029024147494	0.099997478100704	stim05_sf1_pattern2_cont1_shape2.png	1	2	1	2	1	1	0	0	0	0	0	0	0	0	0	0	0	0	1	13
442.8779296875	0.0999781239770527	907014	434	10	stim10_sf2_pattern1_cont2_shape1.png	2	102	1	494.429015232865	494.528993356842	0.0999781239770527	stim10_sf2_pattern1_cont2_shape1.png	2	1	2	1	1	4	0	0	0	0	0	0	0	0	0	0	0	0	1	13
443.3779296875	0.0999989443225786	908038	435	10	stim10_sf2_pattern1_cont2_shape1.png	2	103	1	494.929001157139	495.029000101462	0.0999989443225786	stim10_sf2_pattern1_cont2_shape1.png	2	1	2	1	1	4	0	0	0	0	0	0	0	0	0	0	0	0	1	13
443.8779296875	0.0999901469913311	909062	436	15	stim15_sf2_pattern2_cont2_shape2.png	2	104	2	495.428976817864	495.528966964855	0.0999901469913311	stim15_sf2_pattern2_cont2_shape2.png	2	2	2	2	1	2	0	0	0	0	0	0	0	0	0	0	0	0	1	13
444.3779296875	0.100005688938836	910086	437	0	stim00_sf1_pattern1_cont1_shape1.png	2	105	2	495.928972712445	496.028978401384	0.100005688938836	stim00_sf1_pattern1_cont1_shape1.png	1	1	1	1	1	3	0	0	0	0	0	0	0	0	0	0	0	0	1	13
444.8779296875	0.0999980645901815	911110	438	10	stim10_sf2_pattern1_cont2_shape1.png	2	106	0	496.428966261068	496.528964325658	0.0999980645901815	stim10_sf2_pattern1_cont2_shape1.png	2	1	2	1	1	4	0	0	0	0	0	0	0	0	0	0	0	0	1	13
445.3779296875	0.0999968916112266	912134	439	2	stim02_sf1_pattern1_cont2_shape1.png	2	107	0	496.928956584008	497.028953475619	0.0999968916112266	stim02_sf1_pattern1_cont2_shape1.png	1	1	2	1	1	4	0	0	0	0	0	0	0	0	0	0	0	0	1	13
445.8779296875	0.0999807631742442	913158	440	9	stim09_sf2_pattern1_cont1_shape2.png	2	108	0	497.428942215036	497.52892297821	0.0999807631742442	stim09_sf2_pattern1_cont1_shape2.png	2	1	1	2	1	1	0	0	0	0	0	0	0	0	0	0	0	0	1	13
446.3779296875	0.099918888627144	914182	441	15	stim15_sf2_pattern2_cont2_shape2.png	2	109	0	497.928930485265	498.028849373892	0.099918888627144	stim15_sf2_pattern2_cont2_shape2.png	2	2	2	2	1	2	0	0	0	0	0	0	0	0	0	0	0	0	1	13
446.8779296875	0.0999751915333036	915206	442	3	stim03_sf1_pattern1_cont2_shape2.png	2	110	0	498.428922860912	498.528898052446	0.0999751915333036	stim03_sf1_pattern1_cont2_shape2.png	1	1	2	2	1	2	0	0	0	0	0	0	0	0	0	0	0	0	1	13
447.3779296875	0.100002170009247	916230	443	0	stim00_sf1_pattern1_cont1_shape1.png	2	111	0	498.928912010873	499.028914180883	0.100002170009247	stim00_sf1_pattern1_cont1_shape1.png	1	1	1	1	1	3	0	0	0	0	0	0	0	0	0	0	0	0	1	13
447.8779296875	0.0999977713399858	917254	444	1	stim01_sf1_pattern1_cont1_shape2.png	2	112	0	499.428881220225	499.528878991565	0.0999977713399858	stim01_sf1_pattern1_cont1_shape2.png	1	1	1	2	1	1	0	0	0	0	0	0	0	0	0	0	0	0	1	13
448.37744140625	0.100038825545198	918277	445	8	stim08_sf2_pattern1_cont1_shape1.png	2	113	0	499.928865091788	500.028903917333	0.100038825545198	stim08_sf2_pattern1_cont1_shape1.png	2	1	1	1	1	3	0	0	0	0	0	0	0	0	0	0	0	0	1	13
448.87744140625	0.0999798834418471	919301	446	14	stim14_sf2_pattern2_cont2_shape1.png	2	114	0	500.428855121481	500.528835004923	0.0999798834418471	stim14_sf2_pattern2_cont2_shape1.png	2	2	2	1	1	4	0	0	0	0	0	0	0	0	0	0	0	0	1	13
449.37744140625	0.0999951321427943	920325	447	4	stim04_sf1_pattern2_cont1_shape1.png	2	115	0	500.92883723358	501.028832365722	0.0999951321427943	stim04_sf1_pattern2_cont1_shape1.png	1	2	1	1	1	3	0	0	0	0	0	0	0	0	0	0	0	0	1	13
449.87744140625	0.0999731388219516	921349	448	7	stim07_sf1_pattern2_cont2_shape2.png	2	116	0	501.428838699801	501.528811838623	0.0999731388219516	stim07_sf1_pattern2_cont2_shape2.png	1	2	2	2	1	2	0	0	0	0	0	0	0	0	0	0	0	0	1	13
450.37744140625	0.0999684469134081	922373	449	12	stim12_sf2_pattern2_cont1_shape1.png	2	117	0	501.928844857932	502.028813304845	0.0999684469134081	stim12_sf2_pattern2_cont1_shape1.png	2	2	1	1	1	3	0	0	0	0	0	0	0	0	0	0	0	0	1	13
