onset	duration	onsetsample	eventnumber	stimnumber	stimname	blocknumber	trialnumber	istarget	time_stimon	time_stimoff	stimdur	stimfilename	spatial_freq	pattern	contrast	shape	is_fast_stream	category	ppt_1_response	ppt_1_keypressed	ppt_1_rt	ppt_1_correct	ppt_2_response	ppt_2_keypressed	ppt_2_rt	ppt_2_correct	button1	button2	button3	button4	task_part_number	subjectnr
129.3583984375	0.0999628752724675	264926	0	11	stim11_sf2_pattern1_cont2_shape2.png	0	0	0	295.538282456425	295.638245331697	0.0999628752724675	stim11_sf2_pattern1_cont2_shape2.png	2	1	2	2	1	4	0	0	0	0	0	0	0	0	0	0	0	0	1	3
129.86669921875	0.10000158351977	265967	1	1	stim01_sf1_pattern1_cont1_shape2.png	0	1	0	296.046574818643	296.146576402162	0.10000158351977	stim01_sf1_pattern1_cont1_shape2.png	1	1	1	2	1	1	0	0	0	0	0	0	0	0	0	0	0	0	1	3
130.375	0.104584991873708	267008	2	14	stim14_sf2_pattern2_cont2_shape1.png	0	2	0	296.566992539279	296.671577531152	0.104584991873708	stim14_sf2_pattern2_cont2_shape1.png	2	2	2	1	1	4	0	0	0	0	0	0	0	0	0	0	0	0	1	3
130.8916015625	0.0999854550827877	268066	3	3	stim03_sf1_pattern1_cont2_shape2.png	0	3	0	297.071570082748	297.17155553783	0.0999854550827877	stim03_sf1_pattern1_cont2_shape2.png	1	1	2	2	1	3	0	0	0	0	0	0	0	0	0	0	0	0	1	3
131.3916015625	0.0999652212267392	269090	4	12	stim12_sf2_pattern2_cont1_shape1.png	0	4	0	297.571554834044	297.671520055271	0.0999652212267392	stim12_sf2_pattern2_cont1_shape1.png	2	2	1	1	1	2	0	0	0	0	0	0	0	0	0	0	0	0	1	3
131.8916015625	0.0999968916112266	270114	5	10	stim10_sf2_pattern1_cont2_shape1.png	0	5	0	298.071499704116	298.171496595727	0.0999968916112266	stim10_sf2_pattern1_cont2_shape1.png	2	1	2	1	1	4	0	0	0	0	0	0	0	0	0	0	0	0	1	3
132.3916015625	0.0999828158846867	271138	6	15	stim15_sf2_pattern2_cont2_shape2.png	0	6	0	298.571504689269	298.671487505154	0.0999828158846867	stim15_sf2_pattern2_cont2_shape2.png	2	2	2	2	1	4	0	0	0	0	0	0	0	0	0	0	0	0	1	3
132.8916015625	0.0999144899633393	272162	7	7	stim07_sf1_pattern2_cont2_shape2.png	0	7	0	299.071544863737	299.171459353701	0.0999144899633393	stim07_sf1_pattern2_cont2_shape2.png	1	2	2	2	1	3	0	0	0	0	0	0	0	0	0	0	0	0	1	3
133.3916015625	0.0999681536686694	273186	8	5	stim05_sf1_pattern2_cont1_shape2.png	0	8	0	299.571492373009	299.671460526678	0.0999681536686694	stim05_sf1_pattern2_cont1_shape2.png	1	2	1	2	1	1	0	0	0	0	0	0	0	0	0	0	0	0	1	3
133.8916015625	0.0999880942808886	274210	9	13	stim13_sf2_pattern2_cont1_shape2.png	0	9	0	300.071444574189	300.17143266847	0.0999880942808886	stim13_sf2_pattern2_cont1_shape2.png	2	2	1	2	1	2	0	0	0	0	0	0	0	0	0	0	0	0	1	3
134.3916015625	0.0999787104638017	275234	10	2	stim02_sf1_pattern1_cont2_shape1.png	0	10	0	300.571473605374	300.671452315838	0.0999787104638017	stim02_sf1_pattern1_cont2_shape1.png	1	1	2	1	1	3	0	0	0	0	0	0	0	0	0	0	0	0	1	3
134.8916015625	0.0999790037085404	276258	11	6	stim06_sf1_pattern2_cont2_shape1.png	0	11	0	301.071454544494	301.171433548203	0.0999790037085404	stim06_sf1_pattern2_cont2_shape1.png	1	2	2	1	1	3	0	0	0	0	0	0	0	0	0	0	0	0	1	3
135.3916015625	0.0999936659236482	277282	12	0	stim00_sf1_pattern1_cont1_shape1.png	0	12	0	301.571439295791	301.671432961714	0.0999936659236482	stim00_sf1_pattern1_cont1_shape1.png	1	1	1	1	1	1	0	0	0	0	0	0	0	0	0	0	0	0	1	3
135.8916015625	0.100015952490139	278306	13	4	stim04_sf1_pattern2_cont1_shape1.png	0	13	0	302.071409384873	302.171425337363	0.100015952490139	stim04_sf1_pattern2_cont1_shape1.png	1	2	1	1	1	1	0	0	0	0	0	0	0	0	0	0	0	0	1	3
136.3916015625	0.0999968916103171	279330	14	8	stim08_sf2_pattern1_cont1_shape1.png	0	14	0	302.57144193499	302.6714388266	0.0999968916103171	stim08_sf2_pattern1_cont1_shape1.png	2	1	1	1	1	2	0	0	0	0	0	0	0	0	0	0	0	0	1	3
136.8916015625	0.0999971848541463	280354	15	9	stim09_sf2_pattern1_cont1_shape2.png	0	15	0	303.071409678118	303.171406862972	0.0999971848541463	stim09_sf2_pattern1_cont1_shape2.png	2	1	1	2	1	2	0	0	0	0	0	0	0	0	0	0	0	0	1	3
137.3916015625	0.100018884932069	281378	16	8	stim08_sf2_pattern1_cont1_shape1.png	0	16	0	303.571381819909	303.671400704841	0.100018884932069	stim08_sf2_pattern1_cont1_shape1.png	2	1	1	1	1	2	0	0	0	0	0	0	0	0	0	0	0	0	1	3
137.8916015625	0.100004222717871	282402	17	3	stim03_sf1_pattern1_cont2_shape2.png	0	17	0	304.071385045596	304.171389268314	0.100004222717871	stim03_sf1_pattern1_cont2_shape2.png	1	1	2	2	1	3	0	0	0	0	0	0	0	0	0	0	0	0	1	3
138.3916015625	0.10002152413108	283426	18	4	stim04_sf1_pattern2_cont1_shape1.png	0	18	0	304.571367450939	304.67138897507	0.10002152413108	stim04_sf1_pattern2_cont1_shape1.png	1	2	1	1	1	1	0	0	0	0	0	0	0	0	0	0	0	0	1	3
138.8916015625	0.0999502657678022	284450	19	11	stim11_sf2_pattern1_cont2_shape2.png	0	19	0	305.071348976548	305.171299242315	0.0999502657678022	stim11_sf2_pattern1_cont2_shape2.png	2	1	2	2	1	4	0	0	0	0	0	0	0	0	0	0	0	0	1	3
139.3916015625	0.0999766577533592	285474	20	1	stim01_sf1_pattern1_cont1_shape2.png	0	20	0	305.571358946854	305.671335604608	0.0999766577533592	stim01_sf1_pattern1_cont1_shape2.png	1	1	1	2	1	1	0	0	0	0	0	0	0	0	0	0	0	0	1	3
139.8916015625	0.099998064587453	286498	21	13	stim13_sf2_pattern2_cont1_shape2.png	0	21	0	306.071324930515	306.171322995103	0.099998064587453	stim13_sf2_pattern2_cont1_shape2.png	2	2	1	2	1	2	0	0	0	0	0	0	0	0	0	0	0	0	1	3
140.3916015625	0.0999971848541463	287522	22	14	stim14_sf2_pattern2_cont2_shape1.png	0	22	0	306.571328742692	306.671325927546	0.0999971848541463	stim14_sf2_pattern2_cont2_shape1.png	2	2	2	1	1	4	0	0	0	0	0	0	0	0	0	0	0	0	1	3
140.8916015625	0.100000410541725	288546	23	9	stim09_sf2_pattern1_cont1_shape2.png	0	23	0	307.071301470972	307.171301881514	0.100000410541725	stim09_sf2_pattern1_cont1_shape2.png	2	1	1	2	1	2	0	0	0	0	0	0	0	0	0	0	0	0	1	3
141.3916015625	0.0999892672580245	289570	24	6	stim06_sf1_pattern2_cont2_shape1.png	0	24	0	307.571313200744	307.671302468002	0.0999892672580245	stim06_sf1_pattern2_cont2_shape1.png	1	2	2	1	1	3	0	0	0	0	0	0	0	0	0	0	0	0	1	3
141.8916015625	0.100002756495996	290594	25	12	stim12_sf2_pattern2_cont1_shape1.png	0	25	0	308.071274492497	308.171277248993	0.100002756495996	stim12_sf2_pattern2_cont1_shape1.png	2	2	1	1	1	2	0	0	0	0	0	0	0	0	0	0	0	0	1	3
142.3916015625	0.0999719658448157	291618	26	7	stim07_sf1_pattern2_cont2_shape2.png	0	26	0	308.571288861467	308.671260827312	0.0999719658448157	stim07_sf1_pattern2_cont2_shape2.png	1	2	2	2	1	3	0	0	0	0	0	0	0	0	0	0	0	0	1	3
142.8916015625	0.100001290275031	292642	27	5	stim05_sf1_pattern2_cont1_shape2.png	0	27	0	309.071255138373	309.171256428648	0.100001290275031	stim05_sf1_pattern2_cont1_shape2.png	1	2	1	2	1	1	0	0	0	0	0	0	0	0	0	0	0	0	1	3
143.3916015625	0.100009501114982	293666	28	0	stim00_sf1_pattern1_cont1_shape1.png	0	28	0	309.57126041677	309.671269917885	0.100009501114982	stim00_sf1_pattern1_cont1_shape1.png	1	1	1	1	1	1	0	0	0	0	0	0	0	0	0	0	0	0	1	3
143.8916015625	0.0999775374866658	294690	29	10	stim10_sf2_pattern1_cont2_shape1.png	0	29	0	310.071231678829	310.171209216316	0.0999775374866658	stim10_sf2_pattern1_cont2_shape1.png	2	1	2	1	1	4	0	0	0	0	0	0	0	0	0	0	0	0	1	3
144.3916015625	0.0999942524122162	295714	30	15	stim15_sf2_pattern2_cont2_shape2.png	0	30	0	310.571239303181	310.671233555593	0.0999942524122162	stim15_sf2_pattern2_cont2_shape2.png	2	2	2	2	1	4	0	0	0	0	0	0	0	0	0	0	0	0	1	3
144.8916015625	0.0999989443207596	296738	31	2	stim02_sf1_pattern1_cont2_shape1.png	0	31	0	311.071205580087	311.171204524408	0.0999989443207596	stim02_sf1_pattern1_cont2_shape1.png	1	1	2	1	1	3	0	0	0	0	0	0	0	0	0	0	0	0	1	3
145.3916015625	0.0999546644316069	297762	32	3	stim03_sf1_pattern1_cont2_shape2.png	0	32	0	311.571209099018	311.67116376345	0.0999546644316069	stim03_sf1_pattern1_cont2_shape2.png	1	1	2	2	1	3	0	0	0	0	0	0	0	0	0	0	0	0	1	3
145.8916015625	0.100008621382585	298786	33	0	stim00_sf1_pattern1_cont1_shape1.png	0	33	0	312.071153675846	312.171162297229	0.100008621382585	stim00_sf1_pattern1_cont1_shape1.png	1	1	1	1	1	1	0	0	0	0	0	0	0	0	0	0	0	0	1	3
146.3916015625	0.0999575968753561	299810	34	8	stim08_sf2_pattern1_cont1_shape1.png	0	34	0	312.571168631305	312.671126228181	0.0999575968753561	stim08_sf2_pattern1_cont1_shape1.png	2	1	1	1	1	2	0	0	0	0	0	0	0	0	0	0	0	0	1	3
146.8916015625	0.100002170007429	300834	35	9	stim09_sf2_pattern1_cont1_shape2.png	0	35	0	313.071115847332	313.17111801734	0.100002170007429	stim09_sf2_pattern1_cont1_shape2.png	2	1	1	2	1	2	0	0	0	0	0	0	0	0	0	0	0	0	1	3
147.3916015625	0.0999986510760209	301858	36	12	stim12_sf2_pattern2_cont1_shape1.png	0	36	0	313.571117020309	313.671115671385	0.0999986510760209	stim12_sf2_pattern2_cont1_shape1.png	2	2	1	1	1	2	0	0	0	0	0	0	0	0	0	0	0	0	1	3
147.89111328125	0.0999971848550558	302881	37	5	stim05_sf1_pattern2_cont1_shape2.png	0	37	0	314.071090921567	314.171088106422	0.0999971848550558	stim05_sf1_pattern2_cont1_shape2.png	1	2	1	2	1	1	0	0	0	0	0	0	0	0	0	0	0	0	1	3
148.39111328125	0.100000997030293	303905	38	10	stim10_sf2_pattern1_cont2_shape1.png	0	38	0	314.57108974859	314.67109074562	0.100000997030293	stim10_sf2_pattern1_cont2_shape1.png	2	1	2	1	1	4	0	0	0	0	0	0	0	0	0	0	0	0	1	3
148.89111328125	0.100002756495996	304929	39	4	stim04_sf1_pattern2_cont1_shape1.png	0	39	0	315.071063356603	315.171066113099	0.100002756495996	stim04_sf1_pattern2_cont1_shape1.png	1	2	1	1	1	1	0	0	0	0	0	0	0	0	0	0	0	0	1	3
149.39111328125	0.100000703785554	305953	40	7	stim07_sf1_pattern2_cont2_shape2.png	0	40	0	315.571070687711	315.671071391496	0.100000703785554	stim07_sf1_pattern2_cont2_shape2.png	1	2	2	2	1	3	0	0	0	0	0	0	0	0	0	0	0	0	1	3
149.89111328125	0.100039118789937	306977	41	14	stim14_sf2_pattern2_cont2_shape1.png	0	41	0	316.071046055189	316.171085173979	0.100039118789937	stim14_sf2_pattern2_cont2_shape1.png	2	2	2	1	1	4	0	0	0	0	0	0	0	0	0	0	0	0	1	3
150.39111328125	0.0999872145484915	308001	42	2	stim02_sf1_pattern1_cont2_shape1.png	0	42	0	316.571078898551	316.671066113099	0.0999872145484915	stim02_sf1_pattern1_cont2_shape1.png	1	1	2	1	1	3	0	0	0	0	0	0	0	0	0	0	0	0	1	3
150.89111328125	0.0999834023732546	309025	43	11	stim11_sf2_pattern1_cont2_shape2.png	0	43	0	317.071057784961	317.171041187335	0.0999834023732546	stim11_sf2_pattern1_cont2_shape2.png	2	1	2	2	1	4	0	0	0	0	0	0	0	0	0	0	0	0	1	3
151.39111328125	0.0999995308093276	310049	44	1	stim01_sf1_pattern1_cont1_shape2.png	0	44	0	317.571078312062	317.671077842871	0.0999995308093276	stim01_sf1_pattern1_cont1_shape2.png	1	1	1	2	1	1	0	0	0	0	0	0	0	0	0	0	0	0	1	3
151.89111328125	0.0999675671801015	311073	45	13	stim13_sf2_pattern2_cont1_shape2.png	0	45	0	318.071068928245	318.171036495425	0.0999675671801015	stim13_sf2_pattern2_cont1_shape2.png	2	2	1	2	1	2	0	0	0	0	0	0	0	0	0	0	0	0	1	3
152.39111328125	0.100022403864386	312097	46	6	stim06_sf1_pattern2_cont2_shape1.png	0	46	0	318.571014678049	318.671037081914	0.100022403864386	stim06_sf1_pattern2_cont2_shape1.png	1	2	2	1	1	3	0	0	0	0	0	0	0	0	0	0	0	0	1	3
152.89111328125	0.0999790037085404	313121	47	10	stim10_sf2_pattern1_cont2_shape1.png	0	47	1	319.0710249416	319.171003945308	0.0999790037085404	stim10_sf2_pattern1_cont2_shape1.png	2	1	2	1	1	4	0	0	0	0	0	0	0	0	0	0	0	0	1	3
153.39111328125	0.100000703786463	314145	48	10	stim10_sf2_pattern1_cont2_shape1.png	0	48	1	319.571009399652	319.671010103439	0.100000703786463	stim10_sf2_pattern1_cont2_shape1.png	2	1	2	1	1	4	0	0	0	0	0	0	0	0	0	0	0	0	1	3
153.89111328125	0.0999813496628121	315169	49	0	stim00_sf1_pattern1_cont1_shape1.png	0	49	2	320.07097714278	320.170958492443	0.0999813496628121	stim00_sf1_pattern1_cont1_shape1.png	1	1	1	1	1	1	0	0	0	0	0	0	0	0	0	0	0	0	1	3
154.39111328125	0.099941175193635	316193	50	12	stim12_sf2_pattern2_cont1_shape1.png	0	50	2	320.570985060376	320.67092623557	0.099941175193635	stim12_sf2_pattern2_cont1_shape1.png	2	2	1	1	1	2	0	0	0	0	0	0	0	0	0	0	0	0	1	3
154.89111328125	0.0999930794350803	317217	51	15	stim15_sf2_pattern2_cont2_shape2.png	0	51	0	321.070953389992	321.170946469427	0.0999930794350803	stim15_sf2_pattern2_cont2_shape2.png	2	2	2	2	1	4	0	0	0	0	0	0	0	0	0	0	0	0	1	3
155.39111328125	0.0999927861903416	318241	52	13	stim13_sf2_pattern2_cont1_shape2.png	0	52	0	321.570961894076	321.670954680267	0.0999927861903416	stim13_sf2_pattern2_cont1_shape2.png	2	2	1	2	1	2	0	0	0	0	0	0	0	0	0	0	0	0	1	3
155.89111328125	0.100039412033766	319265	53	1	stim01_sf1_pattern1_cont1_shape2.png	0	53	0	322.070892395178	322.170931807212	0.100039412033766	stim01_sf1_pattern1_cont1_shape2.png	1	1	1	2	1	1	0	0	0	0	0	0	0	0	0	0	0	0	1	3
156.39111328125	0.0999998240531568	320289	54	2	stim02_sf1_pattern1_cont2_shape1.png	0	54	0	322.570934329113	322.670934153166	0.0999998240531568	stim02_sf1_pattern1_cont2_shape1.png	1	1	2	1	1	3	0	0	0	0	0	0	0	0	0	0	0	0	1	3
156.89111328125	0.0999757780218715	321313	55	15	stim15_sf2_pattern2_cont2_shape2.png	0	55	0	323.070930223692	323.170906001714	0.0999757780218715	stim15_sf2_pattern2_cont2_shape2.png	2	2	2	2	1	4	0	0	0	0	0	0	0	0	0	0	0	0	1	3
157.39111328125	0.0999965983655784	322337	56	9	stim09_sf2_pattern1_cont1_shape2.png	0	56	0	323.570911456058	323.670908054423	0.0999965983655784	stim09_sf2_pattern1_cont1_shape2.png	2	1	1	2	1	2	0	0	0	0	0	0	0	0	0	0	0	0	1	3
157.89111328125	0.100015072756833	323361	57	11	stim11_sf2_pattern1_cont2_shape2.png	0	57	0	324.07088095865	324.170896031407	0.100015072756833	stim11_sf2_pattern1_cont2_shape2.png	2	1	2	2	1	4	0	0	0	0	0	0	0	0	0	0	0	0	1	3
158.39111328125	0.0999965983664879	324385	58	12	stim12_sf2_pattern2_cont1_shape1.png	0	58	0	324.570887996513	324.67088459488	0.0999965983664879	stim12_sf2_pattern2_cont1_shape1.png	2	2	1	1	1	2	0	0	0	0	0	0	0	0	0	0	0	0	1	3
158.89111328125	0.0999716726009865	325409	59	0	stim00_sf1_pattern1_cont1_shape1.png	0	59	0	325.070883011361	325.170854683962	0.0999716726009865	stim00_sf1_pattern1_cont1_shape1.png	1	1	1	1	1	1	0	0	0	0	0	0	0	0	0	0	0	0	1	3
159.39111328125	0.0999743117990874	326433	60	14	stim14_sf2_pattern2_cont2_shape1.png	0	60	0	325.570864243726	325.670838555525	0.0999743117990874	stim14_sf2_pattern2_cont2_shape1.png	2	2	2	1	1	4	0	0	0	0	0	0	0	0	0	0	0	0	1	3
159.89111328125	0.100013899779697	327457	61	6	stim06_sf1_pattern2_cont2_shape1.png	0	61	0	326.070833746318	326.170847646098	0.100013899779697	stim06_sf1_pattern2_cont2_shape1.png	1	2	2	1	1	3	0	0	0	0	0	0	0	0	0	0	0	0	1	3
160.39111328125	0.100002756496906	328481	62	3	stim03_sf1_pattern1_cont2_shape2.png	0	62	0	326.570837558495	326.670840314991	0.100002756496906	stim03_sf1_pattern1_cont2_shape2.png	1	1	2	2	1	3	0	0	0	0	0	0	0	0	0	0	0	0	1	3
160.89111328125	0.0999889740141953	329505	63	4	stim04_sf1_pattern2_cont1_shape1.png	0	63	0	327.070809407042	327.170798381057	0.0999889740141953	stim04_sf1_pattern2_cont1_shape1.png	1	2	1	1	1	1	0	0	0	0	0	0	0	0	0	0	0	0	1	3
161.39111328125	0.0999643414934326	330529	64	7	stim07_sf1_pattern2_cont2_shape2.png	0	64	0	327.570814098951	327.670778440444	0.0999643414934326	stim07_sf1_pattern2_cont2_shape2.png	1	2	2	2	1	3	0	0	0	0	0	0	0	0	0	0	0	0	1	3
161.89111328125	0.0999740185552582	331553	65	10	stim10_sf2_pattern1_cont2_shape1.png	0	65	0	328.070767179864	328.170741198419	0.0999740185552582	stim10_sf2_pattern1_cont2_shape1.png	2	1	2	1	1	4	0	0	0	0	0	0	0	0	0	0	0	0	1	3
162.39111328125	0.0999467468354851	332577	66	8	stim08_sf2_pattern1_cont1_shape1.png	0	66	0	328.570793865095	328.67074061193	0.0999467468354851	stim08_sf2_pattern1_cont1_shape1.png	2	1	1	1	1	2	0	0	0	0	0	0	0	0	0	0	0	0	1	3
162.89111328125	0.0999863348151848	333601	67	5	stim05_sf1_pattern2_cont1_shape2.png	0	67	0	329.070740787877	329.170727122692	0.0999863348151848	stim05_sf1_pattern2_cont1_shape2.png	1	2	1	2	1	1	0	0	0	0	0	0	0	0	0	0	0	0	1	3
163.39111328125	0.0999748982885649	334625	68	11	stim11_sf2_pattern1_cont2_shape2.png	0	68	0	329.57074166761	329.670716565898	0.0999748982885649	stim11_sf2_pattern1_cont2_shape2.png	2	1	2	2	1	4	0	0	0	0	0	0	0	0	0	0	0	0	1	3
163.89111328125	0.0999740185552582	335649	69	13	stim13_sf2_pattern2_cont1_shape2.png	0	69	0	330.070718794555	330.17069281311	0.0999740185552582	stim13_sf2_pattern2_cont1_shape2.png	2	2	1	2	1	2	0	0	0	0	0	0	0	0	0	0	0	0	1	3
164.39111328125	0.0999831091285159	336673	70	8	stim08_sf2_pattern1_cont1_shape1.png	0	70	0	330.570715862112	330.67069897124	0.0999831091285159	stim08_sf2_pattern1_cont1_shape1.png	2	1	1	1	1	2	0	0	0	0	0	0	0	0	0	0	0	0	1	3
164.890625	0.100004809206439	337696	71	0	stim00_sf1_pattern1_cont1_shape1.png	0	71	0	331.070694162034	331.17069897124	0.100004809206439	stim00_sf1_pattern1_cont1_shape1.png	1	1	1	1	1	1	0	0	0	0	0	0	0	0	0	0	0	0	1	3
165.390625	0.0999971848550558	338720	72	3	stim03_sf1_pattern1_cont2_shape2.png	0	72	0	331.570697094477	331.670694279332	0.0999971848550558	stim03_sf1_pattern1_cont2_shape2.png	1	1	2	2	1	3	0	0	0	0	0	0	0	0	0	0	0	0	1	3
165.890625	0.100012140313993	339744	73	6	stim06_sf1_pattern2_cont2_shape1.png	0	73	0	332.070690936346	332.17070307666	0.100012140313993	stim06_sf1_pattern2_cont2_shape1.png	1	2	2	1	1	3	0	0	0	0	0	0	0	0	0	0	0	0	1	3
166.390625	0.0999904402360698	340768	74	1	stim01_sf1_pattern1_cont1_shape2.png	0	74	0	332.570705305317	332.670695745553	0.0999904402360698	stim01_sf1_pattern1_cont1_shape2.png	1	1	1	2	1	1	0	0	0	0	0	0	0	0	0	0	0	0	1	3
166.890625	0.100014486268265	341792	75	14	stim14_sf2_pattern2_cont2_shape1.png	0	75	0	333.070673634933	333.170688121201	0.100014486268265	stim14_sf2_pattern2_cont2_shape1.png	2	2	2	1	1	4	0	0	0	0	0	0	0	0	0	0	0	0	1	3
167.390625	0.0999957186340907	342816	76	12	stim12_sf2_pattern2_cont1_shape1.png	0	76	0	333.570674514665	333.670670233299	0.0999957186340907	stim12_sf2_pattern2_cont1_shape1.png	2	2	1	1	1	2	0	0	0	0	0	0	0	0	0	0	0	0	1	3
167.890625	0.0999787104638017	343840	77	2	stim02_sf1_pattern1_cont2_shape1.png	0	77	0	334.070658679474	334.170637389938	0.0999787104638017	stim02_sf1_pattern1_cont2_shape1.png	1	1	2	1	1	3	0	0	0	0	0	0	0	0	0	0	0	0	1	3
168.390625	0.0999954253884425	344864	78	4	stim04_sf1_pattern2_cont1_shape1.png	0	78	0	334.570644310504	334.670639735892	0.0999954253884425	stim04_sf1_pattern2_cont1_shape1.png	1	2	1	1	1	1	0	0	0	0	0	0	0	0	0	0	0	0	1	3
168.890625	0.100001876763599	345888	79	15	stim15_sf2_pattern2_cont2_shape2.png	0	79	0	335.07061000092	335.170611877684	0.100001876763599	stim15_sf2_pattern2_cont2_shape2.png	2	2	2	2	1	4	0	0	0	0	0	0	0	0	0	0	0	0	1	3
169.390625	0.0999960118770105	346912	80	5	stim05_sf1_pattern2_cont1_shape2.png	0	80	0	335.570618211761	335.670614223638	0.0999960118770105	stim05_sf1_pattern2_cont1_shape2.png	1	2	1	2	1	1	0	0	0	0	0	0	0	0	0	0	0	0	1	3
169.890625	0.0999963051226587	347936	81	10	stim10_sf2_pattern1_cont2_shape1.png	0	81	0	336.070588887331	336.170585192453	0.0999963051226587	stim10_sf2_pattern1_cont2_shape1.png	2	1	2	1	1	4	0	0	0	0	0	0	0	0	0	0	0	0	1	3
170.390625	0.0999942524122162	348960	82	7	stim07_sf1_pattern2_cont2_shape2.png	0	82	0	336.57059563195	336.670589884362	0.0999942524122162	stim07_sf1_pattern2_cont2_shape2.png	1	2	2	2	1	3	0	0	0	0	0	0	0	0	0	0	0	0	1	3
170.890625	0.0999707928676798	349984	83	9	stim09_sf2_pattern1_cont1_shape2.png	0	83	0	337.070569239963	337.170540032831	0.0999707928676798	stim09_sf2_pattern1_cont1_shape2.png	2	1	1	2	1	2	0	0	0	0	0	0	0	0	0	0	0	0	1	3
171.390625	0.0999977713436238	351008	84	13	stim13_sf2_pattern2_cont1_shape2.png	0	84	0	337.570569826452	337.670567597796	0.0999977713436238	stim13_sf2_pattern2_cont1_shape2.png	2	2	1	2	1	2	0	0	0	0	0	0	0	0	0	0	0	0	1	3
171.890625	0.0999766577542687	352032	85	3	stim03_sf1_pattern1_cont2_shape2.png	0	85	0	338.070563668321	338.170540326076	0.0999766577542687	stim03_sf1_pattern1_cont2_shape2.png	1	1	2	2	1	3	0	0	0	0	0	0	0	0	0	0	0	0	1	3
172.390625	0.100004222717871	353056	86	2	stim02_sf1_pattern1_cont2_shape1.png	0	86	0	338.570531411449	338.670535634167	0.100004222717871	stim02_sf1_pattern1_cont2_shape1.png	1	1	2	1	1	3	0	0	0	0	0	0	0	0	0	0	0	0	1	3
172.890625	0.100014779512094	354080	87	11	stim11_sf2_pattern1_cont2_shape2.png	0	87	0	339.070498274844	339.170513054356	0.100014779512094	stim11_sf2_pattern1_cont2_shape2.png	2	1	2	2	1	4	0	0	0	0	0	0	0	0	0	0	0	0	1	3
173.390625	0.100001583518861	355104	88	9	stim09_sf2_pattern1_cont1_shape2.png	0	88	0	339.57052056141	339.670522144929	0.100001583518861	stim09_sf2_pattern1_cont1_shape2.png	2	1	1	2	1	2	0	0	0	0	0	0	0	0	0	0	0	0	1	3
173.890625	0.0999963051217492	356128	89	12	stim12_sf2_pattern2_cont1_shape1.png	0	89	0	340.07051235057	340.170508655691	0.0999963051217492	stim12_sf2_pattern2_cont1_shape1.png	2	2	1	1	1	2	0	0	0	0	0	0	0	0	0	0	0	0	1	3
174.390625	0.100000997031202	357152	90	14	stim14_sf2_pattern2_cont2_shape1.png	0	90	0	340.570494755912	340.670495752943	0.100000997031202	stim14_sf2_pattern2_cont2_shape1.png	2	2	2	1	1	4	0	0	0	0	0	0	0	0	0	0	0	0	1	3
174.890625	0.100001583518861	358176	91	6	stim06_sf1_pattern2_cont2_shape1.png	0	91	0	341.070464844994	341.170466428513	0.100001583518861	stim06_sf1_pattern2_cont2_shape1.png	1	2	2	1	1	3	0	0	0	0	0	0	0	0	0	0	0	0	1	3
175.390625	0.10001008760355	359200	92	5	stim05_sf1_pattern2_cont1_shape2.png	0	92	0	341.570472176101	341.670482263705	0.10001008760355	stim05_sf1_pattern2_cont1_shape2.png	1	2	1	2	1	1	0	0	0	0	0	0	0	0	0	0	0	0	1	3
175.890625	0.0999860415722651	360224	93	4	stim04_sf1_pattern2_cont1_shape1.png	0	93	0	342.070462205795	342.170448247367	0.0999860415722651	stim04_sf1_pattern2_cont1_shape1.png	1	2	1	1	1	1	0	0	0	0	0	0	0	0	0	0	0	0	1	3
176.390625	0.0999992375645888	361248	94	7	stim07_sf1_pattern2_cont2_shape2.png	0	94	0	342.570447250336	342.6704464879	0.0999992375645888	stim07_sf1_pattern2_cont2_shape2.png	1	2	2	2	1	3	0	0	0	0	0	0	0	0	0	0	0	0	1	3
176.890625	0.0999769509980979	362272	95	11	stim11_sf2_pattern1_cont2_shape2.png	0	95	1	343.07042701648	343.170403967478	0.0999769509980979	stim11_sf2_pattern1_cont2_shape2.png	2	1	2	2	1	4	0	0	0	0	0	0	0	0	0	0	0	0	1	3
177.390625	0.0999998240540663	363296	96	11	stim11_sf2_pattern1_cont2_shape2.png	0	96	1	343.570378924414	343.670378748468	0.0999998240540663	stim11_sf2_pattern1_cont2_shape2.png	2	1	2	2	1	4	0	0	0	0	0	0	0	0	0	0	0	0	1	3
177.890625	0.100000410541725	364320	97	10	stim10_sf2_pattern1_cont2_shape1.png	0	97	2	344.070352825673	344.170353236214	0.100000410541725	stim10_sf2_pattern1_cont2_shape1.png	2	1	2	1	1	4	0	0	0	0	0	0	0	0	0	0	0	0	1	3
178.390625	0.0999646347372618	365344	98	15	stim15_sf2_pattern2_cont2_shape2.png	0	98	2	344.570376285216	344.670340919954	0.0999646347372618	stim15_sf2_pattern2_cont2_shape2.png	2	2	2	2	1	4	0	0	0	0	0	0	0	0	0	0	0	0	1	3
178.890625	0.0999622887829901	366368	99	10	stim10_sf2_pattern1_cont2_shape1.png	0	99	0	345.070369833842	345.170332122625	0.0999622887829901	stim10_sf2_pattern1_cont2_shape1.png	2	1	2	1	1	4	0	0	0	0	0	0	0	0	0	0	0	0	1	3
179.390625	0.0999728455781224	367392	100	0	stim00_sf1_pattern1_cont1_shape1.png	0	100	0	345.570356637848	345.670329483426	0.0999728455781224	stim00_sf1_pattern1_cont1_shape1.png	1	1	1	1	1	1	0	0	0	0	0	0	0	0	0	0	0	0	1	3
179.890625	0.0999927861903416	368416	101	8	stim08_sf2_pattern1_cont1_shape1.png	0	101	0	346.070344908077	346.170337694267	0.0999927861903416	stim08_sf2_pattern1_cont1_shape1.png	2	1	1	1	1	2	0	0	0	0	0	0	0	0	0	0	0	0	1	3
180.390625	0.0999930794350803	369440	102	1	stim01_sf1_pattern1_cont1_shape2.png	0	102	0	346.570338163458	346.670331242893	0.0999930794350803	stim01_sf1_pattern1_cont1_shape2.png	1	1	1	2	1	1	0	0	0	0	0	0	0	0	0	0	0	0	1	3
180.890625	0.100009501114982	370464	103	15	stim15_sf2_pattern2_cont2_shape2.png	0	103	0	347.070309718761	347.170319219876	0.100009501114982	stim15_sf2_pattern2_cont2_shape2.png	2	2	2	2	1	4	0	0	0	0	0	0	0	0	0	0	0	0	1	3
181.390625	0.100003636229303	371488	104	7	stim07_sf1_pattern2_cont2_shape2.png	0	104	0	347.570311184983	347.670314821212	0.100003636229303	stim07_sf1_pattern2_cont2_shape2.png	1	2	2	2	1	3	0	0	0	0	0	0	0	0	0	0	0	0	1	3
181.89013671875	0.100040878255641	372511	105	3	stim03_sf1_pattern1_cont2_shape2.png	0	105	0	348.070282447041	348.170323325297	0.100040878255641	stim03_sf1_pattern1_cont2_shape2.png	1	1	2	2	1	3	0	0	0	0	0	0	0	0	0	0	0	0	1	3
182.39013671875	0.0999634617610354	373535	106	10	stim10_sf2_pattern1_cont2_shape1.png	0	106	0	348.570314410669	348.67027787243	0.0999634617610354	stim10_sf2_pattern1_cont2_shape1.png	2	1	2	1	1	4	0	0	0	0	0	0	0	0	0	0	0	0	1	3
182.89013671875	0.100015366000662	374559	107	4	stim04_sf1_pattern2_cont1_shape1.png	0	107	0	349.070272476735	349.170287842736	0.100015366000662	stim04_sf1_pattern2_cont1_shape1.png	1	2	1	1	1	1	0	0	0	0	0	0	0	0	0	0	0	0	1	3
183.39013671875	0.0999957186331812	375583	108	6	stim06_sf1_pattern2_cont2_shape1.png	0	108	0	349.570280394331	349.670276112965	0.0999957186331812	stim06_sf1_pattern2_cont2_shape1.png	1	2	2	1	1	3	0	0	0	0	0	0	0	0	0	0	0	0	1	3
183.89013671875	0.100000117296986	376607	109	15	stim15_sf2_pattern2_cont2_shape2.png	0	109	0	350.070275115934	350.170275233231	0.100000117296986	stim15_sf2_pattern2_cont2_shape2.png	2	2	2	2	1	4	0	0	0	0	0	0	0	0	0	0	0	0	1	3
184.39013671875	0.100001583518861	377631	110	8	stim08_sf2_pattern1_cont1_shape1.png	0	110	0	350.570234648221	350.67023623174	0.100001583518861	stim08_sf2_pattern1_cont1_shape1.png	2	1	1	1	1	2	0	0	0	0	0	0	0	0	0	0	0	0	1	3
184.89013671875	0.100003342984564	378655	111	14	stim14_sf2_pattern2_cont2_shape1.png	0	111	0	351.070224384671	351.170227727655	0.100003342984564	stim14_sf2_pattern2_cont2_shape1.png	2	2	2	1	1	4	0	0	0	0	0	0	0	0	0	0	0	0	1	3
185.39013671875	0.100017711954933	379679	112	1	stim01_sf1_pattern1_cont1_shape2.png	0	112	0	351.5702100157	351.670227727655	0.100017711954933	stim01_sf1_pattern1_cont1_shape2.png	1	1	1	2	1	1	0	0	0	0	0	0	0	0	0	0	0	0	1	3
185.89013671875	0.0999986510760209	380703	113	9	stim09_sf2_pattern1_cont1_shape2.png	0	113	0	352.07021822654	352.170216877616	0.0999986510760209	stim09_sf2_pattern1_cont1_shape2.png	2	1	1	2	1	2	0	0	0	0	0	0	0	0	0	0	0	0	1	3
186.39013671875	0.099989267258934	381727	114	5	stim05_sf1_pattern2_cont1_shape2.png	0	114	0	352.570212654899	352.670201922158	0.099989267258934	stim05_sf1_pattern2_cont1_shape2.png	1	2	1	2	1	1	0	0	0	0	0	0	0	0	0	0	0	0	1	3
186.89013671875	0.099975778020962	382751	115	0	stim00_sf1_pattern1_cont1_shape1.png	0	115	0	353.070177172339	353.17015295036	0.099975778020962	stim00_sf1_pattern1_cont1_shape1.png	1	1	1	1	1	1	0	0	0	0	0	0	0	0	0	0	0	0	1	3
187.39013671875	0.100003929473132	383775	116	11	stim11_sf2_pattern1_cont2_shape2.png	0	116	0	353.570182743981	353.670186673454	0.100003929473132	stim11_sf2_pattern1_cont2_shape2.png	2	1	2	2	1	4	0	0	0	0	0	0	0	0	0	0	0	0	1	3
187.89013671875	0.100013606534958	384799	117	2	stim02_sf1_pattern1_cont2_shape1.png	0	117	0	354.070152539818	354.170166146353	0.100013606534958	stim02_sf1_pattern1_cont2_shape1.png	1	1	2	1	1	3	0	0	0	0	0	0	0	0	0	0	0	0	1	3
188.39013671875	0.099997478098885	385823	118	12	stim12_sf2_pattern2_cont1_shape1.png	0	118	0	354.570158991192	354.670156469291	0.099997478098885	stim12_sf2_pattern2_cont1_shape1.png	2	2	1	1	1	2	0	0	0	0	0	0	0	0	0	0	0	0	1	3
188.89013671875	0.0999699131352827	386847	119	13	stim13_sf2_pattern2_cont1_shape2.png	0	119	0	355.070154299284	355.170124212419	0.0999699131352827	stim13_sf2_pattern2_cont1_shape2.png	2	2	1	2	1	2	0	0	0	0	0	0	0	0	0	0	0	0	1	3
189.39013671875	0.0999980645883625	387871	120	5	stim05_sf1_pattern2_cont1_shape2.png	0	120	0	355.570133478938	355.670131543527	0.0999980645883625	stim05_sf1_pattern2_cont1_shape2.png	1	2	1	2	1	1	0	0	0	0	0	0	0	0	0	0	0	0	1	3
189.89013671875	0.0999968916103171	388895	121	6	stim06_sf1_pattern2_cont2_shape1.png	0	121	0	356.070104154509	356.170101046119	0.0999968916103171	stim06_sf1_pattern2_cont2_shape1.png	1	2	2	1	1	3	0	0	0	0	0	0	0	0	0	0	0	0	1	3
190.39013671875	0.099998064587453	389919	122	14	stim14_sf2_pattern2_cont2_shape1.png	0	122	0	356.570109726151	356.670107790738	0.099998064587453	stim14_sf2_pattern2_cont2_shape1.png	2	2	2	1	1	4	0	0	0	0	0	0	0	0	0	0	0	0	1	3
190.89013671875	0.100027975506237	390943	123	15	stim15_sf2_pattern2_cont2_shape2.png	0	123	0	357.070068378704	357.170096354211	0.100027975506237	stim15_sf2_pattern2_cont2_shape2.png	2	2	2	2	1	4	0	0	0	0	0	0	0	0	0	0	0	0	1	3
191.39013671875	0.099987214549401	391967	124	13	stim13_sf2_pattern2_cont1_shape2.png	0	124	0	357.570082161186	357.670069375736	0.099987214549401	stim13_sf2_pattern2_cont1_shape2.png	2	2	1	2	1	2	0	0	0	0	0	0	0	0	0	0	0	0	1	3
191.89013671875	0.0999769509980979	392991	125	10	stim10_sf2_pattern1_cont2_shape1.png	0	125	0	358.07005166378	358.170028614778	0.0999769509980979	stim10_sf2_pattern1_cont2_shape1.png	2	1	2	1	1	4	0	0	0	0	0	0	0	0	0	0	0	0	1	3
192.39013671875	0.0999317913765481	394015	126	4	stim04_sf1_pattern2_cont1_shape1.png	0	126	0	358.570089785539	358.670021576915	0.0999317913765481	stim04_sf1_pattern2_cont1_shape1.png	1	2	1	1	1	1	0	0	0	0	0	0	0	0	0	0	0	0	1	3
192.89013671875	0.100005102450268	395039	127	0	stim00_sf1_pattern1_cont1_shape1.png	0	127	0	359.070022925839	359.170028028289	0.100005102450268	stim00_sf1_pattern1_cont1_shape1.png	1	1	1	1	1	1	0	0	0	0	0	0	0	0	0	0	0	0	1	3
193.39013671875	0.100019471421547	396063	128	2	stim02_sf1_pattern1_cont2_shape1.png	0	128	0	359.569993894654	359.670013366075	0.100019471421547	stim02_sf1_pattern1_cont2_shape1.png	1	1	2	1	1	3	0	0	0	0	0	0	0	0	0	0	0	0	1	3
193.89013671875	0.0999854550827877	397087	129	3	stim03_sf1_pattern1_cont2_shape2.png	0	129	0	360.070000052784	360.169985507867	0.0999854550827877	stim03_sf1_pattern1_cont2_shape2.png	1	1	2	2	1	3	0	0	0	0	0	0	0	0	0	0	0	0	1	3
194.39013671875	0.100018005199672	398111	130	1	stim01_sf1_pattern1_cont1_shape2.png	0	130	0	360.569966916179	360.669984921378	0.100018005199672	stim01_sf1_pattern1_cont1_shape2.png	1	1	1	2	1	1	0	0	0	0	0	0	0	0	0	0	0	0	1	3
194.89013671875	0.100001876763599	399135	131	12	stim12_sf2_pattern2_cont1_shape1.png	0	131	0	361.069963983735	361.169965860498	0.100001876763599	stim12_sf2_pattern2_cont1_shape1.png	2	2	1	1	1	2	0	0	0	0	0	0	0	0	0	0	0	0	1	3
195.39013671875	0.0999939591674774	400159	132	11	stim11_sf2_pattern1_cont2_shape2.png	0	132	0	361.569977179729	361.669971138896	0.0999939591674774	stim11_sf2_pattern1_cont2_shape2.png	2	1	2	2	1	4	0	0	0	0	0	0	0	0	0	0	0	0	1	3
195.89013671875	0.100010674092118	401183	133	9	stim09_sf2_pattern1_cont1_shape2.png	0	133	0	362.069944629612	362.169955303704	0.100010674092118	stim09_sf2_pattern1_cont1_shape2.png	2	1	1	2	1	2	0	0	0	0	0	0	0	0	0	0	0	0	1	3
196.39013671875	0.0999968916103171	402207	134	8	stim08_sf2_pattern1_cont1_shape1.png	0	134	0	362.569948735032	362.669945626642	0.0999968916103171	stim08_sf2_pattern1_cont1_shape1.png	2	1	1	1	1	2	0	0	0	0	0	0	0	0	0	0	0	0	1	3
196.89013671875	0.10002973497194	403231	135	7	stim07_sf1_pattern2_cont2_shape2.png	0	135	0	363.069940524191	363.169970259163	0.10002973497194	stim07_sf1_pattern2_cont2_shape2.png	1	2	2	2	1	3	0	0	0	0	0	0	0	0	0	0	0	0	1	3
197.39013671875	0.10000158351977	404255	136	8	stim08_sf2_pattern1_cont1_shape1.png	0	136	0	363.569948441787	363.669950025307	0.10000158351977	stim08_sf2_pattern1_cont1_shape1.png	2	1	1	1	1	2	0	0	0	0	0	0	0	0	0	0	0	0	1	3
197.89013671875	0.0999728455781224	405279	137	13	stim13_sf2_pattern2_cont1_shape2.png	0	137	0	364.069936125527	364.169908971106	0.0999728455781224	stim13_sf2_pattern2_cont1_shape2.png	2	2	1	2	1	2	0	0	0	0	0	0	0	0	0	0	0	0	1	3
198.39013671875	0.0999766577533592	406303	138	5	stim05_sf1_pattern2_cont1_shape2.png	0	138	0	364.569916184915	364.669892842669	0.0999766577533592	stim05_sf1_pattern2_cont1_shape2.png	1	2	1	2	1	1	0	0	0	0	0	0	0	0	0	0	0	0	1	3
198.89013671875	0.100017125467275	407327	139	9	stim09_sf2_pattern1_cont1_shape2.png	0	139	0	365.069886273996	365.169903399464	0.100017125467275	stim09_sf2_pattern1_cont1_shape2.png	2	1	1	2	1	2	0	0	0	0	0	0	0	0	0	0	0	0	1	3
199.3896484375	0.100001876763599	408350	140	1	stim01_sf1_pattern1_cont1_shape2.png	0	140	0	365.569892432127	365.66989430889	0.100001876763599	stim01_sf1_pattern1_cont1_shape2.png	1	1	1	2	1	1	0	0	0	0	0	0	0	0	0	0	0	0	1	3
199.8896484375	0.0999971848550558	409374	141	0	stim00_sf1_pattern1_cont1_shape1.png	0	141	0	366.069865746896	366.169862931751	0.0999971848550558	stim00_sf1_pattern1_cont1_shape1.png	1	1	1	1	1	1	0	0	0	0	0	0	0	0	0	0	0	0	1	3
200.3896484375	0.100049968827989	410398	142	3	stim03_sf1_pattern1_cont2_shape2.png	0	142	0	366.569824106205	366.669874075033	0.100049968827989	stim03_sf1_pattern1_cont2_shape2.png	1	1	2	2	1	3	0	0	0	0	0	0	0	0	0	0	0	0	1	3
200.8896484375	0.0999939591674774	411422	143	6	stim06_sf1_pattern2_cont2_shape1.png	0	143	0	367.069858415788	367.169852374956	0.0999939591674774	stim06_sf1_pattern2_cont2_shape1.png	1	2	2	1	1	3	0	0	0	0	0	0	0	0	0	0	0	0	1	3
201.3896484375	0.0999405887059766	412446	144	14	stim14_sf2_pattern2_cont2_shape1.png	0	144	0	367.569848738726	367.669789327432	0.0999405887059766	stim14_sf2_pattern2_cont2_shape1.png	2	2	2	1	1	4	0	0	0	0	0	0	0	0	0	0	0	0	1	3
201.8896484375	0.0999939591674774	413470	145	10	stim10_sf2_pattern1_cont2_shape1.png	0	145	0	368.069834663001	368.169828622168	0.0999939591674774	stim10_sf2_pattern1_cont2_shape1.png	2	1	2	1	1	4	0	0	0	0	0	0	0	0	0	0	0	0	1	3
202.3896484375	0.0999619955391609	414494	146	11	stim11_sf2_pattern1_cont2_shape2.png	0	146	0	368.569823226473	368.669785222012	0.0999619955391609	stim11_sf2_pattern1_cont2_shape2.png	2	1	2	2	1	4	0	0	0	0	0	0	0	0	0	0	0	0	1	3
202.8896484375	0.100006275428314	415518	147	12	stim12_sf2_pattern2_cont1_shape1.png	0	147	0	369.069809737235	369.169816012663	0.100006275428314	stim12_sf2_pattern2_cont1_shape1.png	2	2	1	1	1	2	0	0	0	0	0	0	0	0	0	0	0	0	1	3
203.3896484375	0.100004809206439	416542	148	2	stim02_sf1_pattern1_cont2_shape1.png	0	148	0	369.569805925059	369.669810734265	0.100004809206439	stim02_sf1_pattern1_cont2_shape1.png	1	1	2	1	1	3	0	0	0	0	0	0	0	0	0	0	0	0	1	3
203.8896484375	0.0999977713427143	417566	149	4	stim04_sf1_pattern2_cont1_shape1.png	0	149	0	370.069767803301	370.169765574644	0.0999977713427143	stim04_sf1_pattern2_cont1_shape1.png	1	2	1	1	1	1	0	0	0	0	0	0	0	0	0	0	0	0	1	3
204.3896484375	0.0999983578321917	418590	150	7	stim07_sf1_pattern2_cont2_shape2.png	0	150	0	370.569771615476	370.669769973309	0.0999983578321917	stim07_sf1_pattern2_cont2_shape2.png	1	2	2	2	1	3	0	0	0	0	0	0	0	0	0	0	0	0	1	3
204.8896484375	0.100042930965174	419614	151	15	stim15_sf2_pattern2_cont2_shape2.png	0	151	0	371.069728801809	371.169771732774	0.100042930965174	stim15_sf2_pattern2_cont2_shape2.png	2	2	2	2	1	4	0	0	0	0	0	0	0	0	0	0	0	0	1	3
205.3896484375	0.0999933726789095	420638	152	8	stim08_sf2_pattern1_cont1_shape1.png	0	152	0	371.56974932891	371.669742701589	0.0999933726789095	stim08_sf2_pattern1_cont1_shape1.png	2	1	1	1	1	2	0	0	0	0	0	0	0	0	0	0	0	0	1	3
205.8896484375	0.100013899779697	421662	153	14	stim14_sf2_pattern2_cont2_shape1.png	0	153	0	372.069722350435	372.169736250215	0.100013899779697	stim14_sf2_pattern2_cont2_shape1.png	2	2	2	1	1	4	0	0	0	0	0	0	0	0	0	0	0	0	1	3
206.3896484375	0.0999798834418471	422686	154	9	stim09_sf2_pattern1_cont1_shape2.png	0	154	0	372.569727628832	372.669707512274	0.0999798834418471	stim09_sf2_pattern1_cont1_shape2.png	2	1	1	2	1	2	0	0	0	0	0	0	0	0	0	0	0	0	1	3
206.8896484375	0.0999523184773352	423710	155	6	stim06_sf1_pattern2_cont2_shape1.png	0	155	0	373.069720297724	373.169672616202	0.0999523184773352	stim06_sf1_pattern2_cont2_shape1.png	1	2	2	1	1	3	0	0	0	0	0	0	0	0	0	0	0	0	1	3
207.3896484375	0.099982522639948	424734	156	7	stim07_sf1_pattern2_cont2_shape2.png	0	156	0	373.56968246921	373.66966499185	0.099982522639948	stim07_sf1_pattern2_cont2_shape2.png	1	2	2	2	1	3	0	0	0	0	0	0	0	0	0	0	0	0	1	3
207.8896484375	0.0999725523342931	425758	157	1	stim01_sf1_pattern1_cont1_shape2.png	0	157	0	374.069656370468	374.169628922802	0.0999725523342931	stim01_sf1_pattern1_cont1_shape2.png	1	1	1	2	1	1	0	0	0	0	0	0	0	0	0	0	0	0	1	3
208.3896484375	0.0999631685172062	426782	158	11	stim11_sf2_pattern1_cont2_shape2.png	0	158	0	374.569658129933	374.669621298451	0.0999631685172062	stim11_sf2_pattern1_cont2_shape2.png	2	1	2	2	1	4	0	0	0	0	0	0	0	0	0	0	0	0	1	3
208.8896484375	0.0999578901191853	427806	159	3	stim03_sf1_pattern1_cont2_shape2.png	0	159	0	375.069648159628	375.169606049747	0.0999578901191853	stim03_sf1_pattern1_cont2_shape2.png	1	1	2	2	1	3	0	0	0	0	0	0	0	0	0	0	0	0	1	3
209.3896484375	0.0999901469913311	428830	160	4	stim04_sf1_pattern2_cont1_shape1.png	0	160	0	375.569608278403	375.669598425395	0.0999901469913311	stim04_sf1_pattern2_cont1_shape1.png	1	2	1	1	1	1	0	0	0	0	0	0	0	0	0	0	0	0	1	3
209.8896484375	0.0999619955391609	429854	161	2	stim02_sf1_pattern1_cont2_shape1.png	0	161	0	376.069620301419	376.169582296959	0.0999619955391609	stim02_sf1_pattern1_cont2_shape1.png	1	1	2	1	1	3	0	0	0	0	0	0	0	0	0	0	0	0	1	3
210.3896484375	0.100002463252167	430878	162	12	stim12_sf2_pattern2_cont1_shape1.png	0	162	0	376.569614436534	376.669616899786	0.100002463252167	stim12_sf2_pattern2_cont1_shape1.png	2	2	1	1	1	2	0	0	0	0	0	0	0	0	0	0	0	0	1	3
210.8896484375	0.100039998522334	431902	163	15	stim15_sf2_pattern2_cont2_shape2.png	0	163	0	377.069544351147	377.169584349669	0.100039998522334	stim15_sf2_pattern2_cont2_shape2.png	2	2	2	2	1	4	0	0	0	0	0	0	0	0	0	0	0	0	1	3
211.3896484375	0.0999772442428366	432926	164	13	stim13_sf2_pattern2_cont1_shape2.png	0	164	0	377.569588337791	377.669565582034	0.0999772442428366	stim13_sf2_pattern2_cont1_shape2.png	2	2	1	2	1	2	0	0	0	0	0	0	0	0	0	0	0	0	1	3
211.8896484375	0.100014779513003	433950	165	0	stim00_sf1_pattern1_cont1_shape1.png	0	165	0	378.069570743133	378.169585522646	0.100014779513003	stim00_sf1_pattern1_cont1_shape1.png	1	1	1	1	1	1	0	0	0	0	0	0	0	0	0	0	0	0	1	3
212.3896484375	0.0999954253884425	434974	166	10	stim10_sf2_pattern1_cont2_shape1.png	0	166	0	378.569589217524	378.669584642913	0.0999954253884425	stim10_sf2_pattern1_cont2_shape1.png	2	1	2	1	1	4	0	0	0	0	0	0	0	0	0	0	0	0	1	3
212.8896484375	0.0999983578321917	435998	167	5	stim05_sf1_pattern2_cont1_shape2.png	0	167	0	379.06956165256	379.169560010392	0.0999983578321917	stim05_sf1_pattern2_cont1_shape2.png	1	2	1	2	1	1	0	0	0	0	0	0	0	0	0	0	0	0	1	3
234.11376953125	0.0999945456560454	479465	168	5	stim05_sf1_pattern2_cont1_shape2.png	1	0	0	400.294063914354	400.39405846001	0.0999945456560454	stim05_sf1_pattern2_cont1_shape2.png	1	2	1	2	1	1	0	0	0	0	0	0	0	0	0	0	0	0	1	3
234.61376953125	0.0999904402360698	480489	169	1	stim01_sf1_pattern1_cont1_shape2.png	1	1	0	400.794054237292	400.894044677528	0.0999904402360698	stim01_sf1_pattern1_cont1_shape2.png	1	1	1	2	1	1	0	0	0	0	0	0	0	0	0	0	0	0	1	3
235.11376953125	0.0999971848550558	481513	170	7	stim07_sf1_pattern2_cont2_shape2.png	1	2	0	401.294038402099	401.394035586954	0.0999971848550558	stim07_sf1_pattern2_cont2_shape2.png	1	2	2	2	1	3	0	0	0	0	0	0	0	0	0	0	0	0	1	3
235.61376953125	0.0999971848550558	482537	171	15	stim15_sf2_pattern2_cont2_shape2.png	1	3	0	401.794024619618	401.894021804473	0.0999971848550558	stim15_sf2_pattern2_cont2_shape2.png	2	2	2	2	1	4	0	0	0	0	0	0	0	0	0	0	0	0	1	3
236.11376953125	0.100042051231867	483561	172	3	stim03_sf1_pattern1_cont2_shape2.png	1	4	0	402.29395922614	402.394001277372	0.100042051231867	stim03_sf1_pattern1_cont2_shape2.png	1	1	2	2	1	3	0	0	0	0	0	0	0	0	0	0	0	0	1	3
236.61376953125	0.0999875077923207	484585	173	11	stim11_sf2_pattern1_cont2_shape2.png	1	5	0	402.793988843814	402.893976351606	0.0999875077923207	stim11_sf2_pattern1_cont2_shape2.png	2	1	2	2	1	4	0	0	0	0	0	0	0	0	0	0	0	0	1	3
237.11376953125	0.100014193024435	485609	174	9	stim09_sf2_pattern1_cont1_shape2.png	1	6	0	403.293977114042	403.393991307066	0.100014193024435	stim09_sf2_pattern1_cont1_shape2.png	2	1	1	2	1	2	0	0	0	0	0	0	0	0	0	0	0	0	1	3
237.61376953125	0.100018298443501	486633	175	8	stim08_sf2_pattern1_cont1_shape1.png	1	7	0	403.793951308544	403.893969606987	0.100018298443501	stim08_sf2_pattern1_cont1_shape1.png	2	1	1	1	1	2	0	0	0	0	0	0	0	0	0	0	0	0	1	3
238.11376953125	0.0999857483275264	487657	176	2	stim02_sf1_pattern1_cont2_shape1.png	1	8	0	404.293949842322	404.39393559065	0.0999857483275264	stim02_sf1_pattern1_cont2_shape1.png	1	1	2	1	1	3	0	0	0	0	0	0	0	0	0	0	0	0	1	3
238.61376953125	0.100025922795794	488681	177	4	stim04_sf1_pattern2_cont1_shape1.png	1	9	0	404.793942511214	404.89396843401	0.100025922795794	stim04_sf1_pattern2_cont1_shape1.png	1	2	1	1	1	1	0	0	0	0	0	0	0	0	0	0	0	0	1	3
239.11376953125	0.100002756495996	489705	178	0	stim00_sf1_pattern1_cont1_shape1.png	1	10	0	405.29388210289	405.393884859386	0.100002756495996	stim00_sf1_pattern1_cont1_shape1.png	1	1	1	1	1	1	0	0	0	0	0	0	0	0	0	0	0	0	1	3
239.61376953125	0.0999977713427143	490729	179	6	stim06_sf1_pattern2_cont2_shape1.png	1	11	0	405.793906148922	405.893903920265	0.0999977713427143	stim06_sf1_pattern2_cont2_shape1.png	1	2	2	1	1	3	0	0	0	0	0	0	0	0	0	0	0	0	1	3
240.11376953125	0.0999617022944221	491753	180	12	stim12_sf2_pattern2_cont1_shape1.png	1	12	0	406.293906735411	406.393868437705	0.0999617022944221	stim12_sf2_pattern2_cont1_shape1.png	2	2	1	1	1	2	0	0	0	0	0	0	0	0	0	0	0	0	1	3
240.61376953125	0.10002152413108	492777	181	10	stim10_sf2_pattern1_cont2_shape1.png	1	13	0	406.793860402812	406.893881926943	0.10002152413108	stim10_sf2_pattern1_cont2_shape1.png	2	1	2	1	1	4	0	0	0	0	0	0	0	0	0	0	0	0	1	3
241.11376953125	0.0999901469913311	493801	182	14	stim14_sf2_pattern2_cont2_shape1.png	1	14	0	407.293887967776	407.393878114767	0.0999901469913311	stim14_sf2_pattern2_cont2_shape1.png	2	2	2	1	1	4	0	0	0	0	0	0	0	0	0	0	0	0	1	3
241.61376953125	0.100000410542634	494825	183	13	stim13_sf2_pattern2_cont1_shape2.png	1	15	0	407.793858643346	407.893859053888	0.100000410542634	stim13_sf2_pattern2_cont1_shape2.png	2	2	1	2	1	2	0	0	0	0	0	0	0	0	0	0	0	0	1	3
242.11376953125	0.0999834023732546	495849	184	6	stim06_sf1_pattern2_cont2_shape1.png	1	16	0	408.293847206818	408.393830609191	0.0999834023732546	stim06_sf1_pattern2_cont2_shape1.png	1	2	2	1	1	3	0	0	0	0	0	0	0	0	0	0	0	0	1	3
242.61376953125	0.100009794359721	496873	185	5	stim05_sf1_pattern2_cont1_shape2.png	1	17	0	408.793847500063	408.893857294423	0.100009794359721	stim05_sf1_pattern2_cont1_shape2.png	1	2	1	2	1	1	0	0	0	0	0	0	0	0	0	0	0	0	1	3
243.11376953125	0.100001290275031	497897	186	9	stim09_sf2_pattern1_cont1_shape2.png	1	18	0	409.293853951437	409.393855241712	0.100001290275031	stim09_sf2_pattern1_cont1_shape2.png	2	1	1	2	1	2	0	0	0	0	0	0	0	0	0	0	0	0	1	3
243.61376953125	0.0999854550827877	498921	187	1	stim01_sf1_pattern1_cont1_shape2.png	1	19	0	409.793851605483	409.893837060566	0.0999854550827877	stim01_sf1_pattern1_cont1_shape2.png	1	1	1	2	1	1	0	0	0	0	0	0	0	0	0	0	0	0	1	3
244.11376953125	0.0999995308084181	499945	188	7	stim07_sf1_pattern2_cont2_shape2.png	1	20	0	410.293820521588	410.393820052396	0.0999995308084181	stim07_sf1_pattern2_cont2_shape2.png	1	2	2	2	1	3	0	0	0	0	0	0	0	0	0	0	0	0	1	3
244.61376953125	0.100014779513003	500969	189	12	stim12_sf2_pattern2_cont1_shape1.png	1	21	0	410.793793543112	410.893808322625	0.100014779513003	stim12_sf2_pattern2_cont1_shape1.png	2	2	1	1	1	2	0	0	0	0	0	0	0	0	0	0	0	0	1	3
245.11376953125	0.0999798834409376	501993	190	11	stim11_sf2_pattern1_cont2_shape2.png	1	22	0	411.293810844526	411.393790727967	0.0999798834409376	stim11_sf2_pattern1_cont2_shape2.png	2	1	2	2	1	4	0	0	0	0	0	0	0	0	0	0	0	0	1	3
245.61376953125	0.0999951321446133	503017	191	13	stim13_sf2_pattern2_cont1_shape2.png	1	23	0	411.79378591876	411.893781050905	0.0999951321446133	stim13_sf2_pattern2_cont1_shape2.png	2	2	1	2	1	2	0	0	0	0	0	0	0	0	0	0	0	0	1	3
246.11376953125	0.10001302004639	504041	192	0	stim00_sf1_pattern1_cont1_shape1.png	1	24	0	412.293756007843	412.393769027889	0.10001302004639	stim00_sf1_pattern1_cont1_shape1.png	1	1	1	1	1	1	0	0	0	0	0	0	0	0	0	0	0	0	1	3
246.61376953125	0.099995425389352	505065	193	4	stim04_sf1_pattern2_cont1_shape1.png	1	25	0	412.793761579484	412.893757004873	0.099995425389352	stim04_sf1_pattern2_cont1_shape1.png	1	2	1	1	1	1	0	0	0	0	0	0	0	0	0	0	0	0	1	3
247.11376953125	0.100003342984564	506089	194	14	stim14_sf2_pattern2_cont2_shape1.png	1	26	0	413.293743398338	413.393746741323	0.100003342984564	stim14_sf2_pattern2_cont2_shape1.png	2	2	2	1	1	4	0	0	0	0	0	0	0	0	0	0	0	0	1	3
247.61376953125	0.0999930794341708	507113	195	8	stim08_sf2_pattern1_cont1_shape1.png	1	27	0	413.79374017265	413.893733252085	0.0999930794341708	stim08_sf2_pattern1_cont1_shape1.png	2	1	1	1	1	2	0	0	0	0	0	0	0	0	0	0	0	0	1	3
248.11328125	0.100005102451178	508136	196	3	stim03_sf1_pattern1_cont2_shape2.png	1	28	0	414.293718179328	414.393723281779	0.100005102451178	stim03_sf1_pattern1_cont2_shape2.png	1	1	2	2	1	3	0	0	0	0	0	0	0	0	0	0	0	0	1	3
248.61328125	0.100010967335947	509160	197	15	stim15_sf2_pattern2_cont2_shape2.png	1	29	0	414.793712607687	414.893723575023	0.100010967335947	stim15_sf2_pattern2_cont2_shape2.png	2	2	2	2	1	4	0	0	0	0	0	0	0	0	0	0	0	0	1	3
249.11328125	0.100014779512094	510184	198	10	stim10_sf2_pattern1_cont2_shape1.png	1	30	0	415.29368416299	415.393698942502	0.100014779512094	stim10_sf2_pattern1_cont2_shape1.png	2	1	2	1	1	4	0	0	0	0	0	0	0	0	0	0	0	0	1	3
249.61328125	0.0999939591674774	511208	199	4	stim04_sf1_pattern2_cont1_shape1.png	1	31	1	415.793694719784	415.893688678952	0.0999939591674774	stim04_sf1_pattern2_cont1_shape1.png	1	2	1	1	1	1	0	0	0	0	0	0	0	0	0	0	0	0	1	3
250.11328125	0.10001008760446	512232	200	4	stim04_sf1_pattern2_cont1_shape1.png	1	32	1	416.293665688599	416.393675776203	0.10001008760446	stim04_sf1_pattern2_cont1_shape1.png	1	2	1	1	1	1	0	0	0	0	0	0	0	0	0	0	0	0	1	3
250.61328125	0.100027682261498	513256	201	7	stim07_sf1_pattern2_cont2_shape2.png	1	33	2	416.793621701954	416.893649384216	0.100027682261498	stim07_sf1_pattern2_cont2_shape2.png	1	2	2	2	1	3	0	0	0	0	0	0	0	0	0	0	0	0	1	3
251.11328125	0.0999860415713556	514280	202	10	stim10_sf2_pattern1_cont2_shape1.png	1	34	2	417.293653372339	417.39363941391	0.0999860415713556	stim10_sf2_pattern1_cont2_shape1.png	2	1	2	1	1	4	0	0	0	0	0	0	0	0	0	0	0	0	1	3
251.61328125	0.0999998240540663	515304	203	2	stim02_sf1_pattern1_cont2_shape1.png	1	35	0	417.793642815544	417.893642639598	0.0999998240540663	stim02_sf1_pattern1_cont2_shape1.png	1	1	2	1	1	3	0	0	0	0	0	0	0	0	0	0	0	0	1	3
252.11328125	0.099995425389352	516328	204	13	stim13_sf2_pattern2_cont1_shape2.png	1	36	0	418.293635191192	418.393630616582	0.099995425389352	stim13_sf2_pattern2_cont1_shape2.png	2	2	1	2	1	2	0	0	0	0	0	0	0	0	0	0	0	0	1	3
252.61328125	0.099973725311429	517352	205	15	stim15_sf2_pattern2_cont2_shape2.png	1	37	0	418.793615837069	418.89358956238	0.099973725311429	stim15_sf2_pattern2_cont2_shape2.png	2	2	2	2	1	4	0	0	0	0	0	0	0	0	0	0	0	0	1	3
253.11328125	0.0999842821056518	518376	206	1	stim01_sf1_pattern1_cont1_shape2.png	1	38	0	419.293592377525	419.393576659631	0.0999842821056518	stim01_sf1_pattern1_cont1_shape2.png	1	1	1	2	1	1	0	0	0	0	0	0	0	0	0	0	0	0	1	3
253.61328125	0.0999792969523696	519400	207	10	stim10_sf2_pattern1_cont2_shape1.png	1	39	0	419.793594430235	419.893573727188	0.0999792969523696	stim10_sf2_pattern1_cont2_shape1.png	2	1	2	1	1	4	0	0	0	0	0	0	0	0	0	0	0	0	1	3
254.11328125	0.100003342984564	520424	208	6	stim06_sf1_pattern2_cont2_shape1.png	1	40	0	420.293551909812	420.393555252796	0.100003342984564	stim06_sf1_pattern2_cont2_shape1.png	1	2	2	1	1	3	0	0	0	0	0	0	0	0	0	0	0	0	1	3
254.61328125	0.099967567181011	521448	209	8	stim08_sf2_pattern1_cont1_shape1.png	1	41	0	420.793568331493	420.893535898674	0.099967567181011	stim08_sf2_pattern1_cont1_shape1.png	2	1	1	1	1	2	0	0	0	0	0	0	0	0	0	0	0	0	1	3
255.11328125	0.10001302004639	522472	210	11	stim11_sf2_pattern1_cont2_shape2.png	1	42	0	421.293543112483	421.39355613253	0.10001302004639	stim11_sf2_pattern1_cont2_shape2.png	2	1	2	2	1	4	0	0	0	0	0	0	0	0	0	0	0	0	1	3
255.61328125	0.09997636450953	523496	211	14	stim14_sf2_pattern2_cont2_shape1.png	1	43	0	421.793522585383	421.893498949892	0.09997636450953	stim14_sf2_pattern2_cont2_shape1.png	2	2	2	1	1	4	0	0	0	0	0	0	0	0	0	0	0	0	1	3
256.11328125	0.099975778020962	524520	212	9	stim09_sf2_pattern1_cont1_shape2.png	1	44	0	422.293534901642	422.393510679663	0.099975778020962	stim09_sf2_pattern1_cont1_shape2.png	2	1	1	2	1	2	0	0	0	0	0	0	0	0	0	0	0	0	1	3
256.61328125	0.0999828158837772	525544	213	7	stim07_sf1_pattern2_cont2_shape2.png	1	45	0	422.793503817747	422.893486633631	0.0999828158837772	stim07_sf1_pattern2_cont2_shape2.png	1	2	2	2	1	3	0	0	0	0	0	0	0	0	0	0	0	0	1	3
257.11328125	0.099998064587453	526568	214	0	stim00_sf1_pattern1_cont1_shape1.png	1	46	0	423.293493554197	423.393491618785	0.099998064587453	stim00_sf1_pattern1_cont1_shape1.png	1	1	1	1	1	1	0	0	0	0	0	0	0	0	0	0	0	0	1	3
257.61328125	0.0999945456560454	527592	215	2	stim02_sf1_pattern1_cont2_shape1.png	1	47	0	423.793481237936	423.893475783592	0.0999945456560454	stim02_sf1_pattern1_cont2_shape1.png	1	1	2	1	1	3	0	0	0	0	0	0	0	0	0	0	0	0	1	3
258.11328125	0.100002463252167	528616	216	5	stim05_sf1_pattern2_cont1_shape2.png	1	48	0	424.293489742021	424.393492205273	0.100002463252167	stim05_sf1_pattern2_cont1_shape2.png	1	2	1	2	1	1	0	0	0	0	0	0	0	0	0	0	0	0	1	3
258.61328125	0.0999332575984226	529640	217	12	stim12_sf2_pattern2_cont1_shape1.png	1	49	0	424.793480651448	424.893413909046	0.0999332575984226	stim12_sf2_pattern2_cont1_shape1.png	2	2	1	1	1	2	0	0	0	0	0	0	0	0	0	0	0	0	1	3
259.11328125	0.0999792969523696	530664	218	3	stim03_sf1_pattern1_cont2_shape2.png	1	50	0	425.293468628432	425.393447925384	0.0999792969523696	stim03_sf1_pattern1_cont2_shape2.png	1	1	2	2	1	3	0	0	0	0	0	0	0	0	0	0	0	0	1	3
259.61328125	0.099952025233506	531688	219	4	stim04_sf1_pattern2_cont1_shape1.png	1	51	0	425.793464816255	425.893416841489	0.099952025233506	stim04_sf1_pattern2_cont1_shape1.png	1	2	1	1	1	1	0	0	0	0	0	0	0	0	0	0	0	0	1	3
260.11328125	0.0999775374866658	532712	220	9	stim09_sf2_pattern1_cont1_shape2.png	1	52	0	426.293435491826	426.393413029313	0.0999775374866658	stim09_sf2_pattern1_cont1_shape2.png	2	1	1	2	1	2	0	0	0	0	0	0	0	0	0	0	0	0	1	3
260.61328125	0.0999889740141953	533736	221	3	stim03_sf1_pattern1_cont2_shape2.png	1	53	0	426.793426108009	426.893415082023	0.0999889740141953	stim03_sf1_pattern1_cont2_shape2.png	1	1	2	2	1	3	0	0	0	0	0	0	0	0	0	0	0	0	1	3
261.11328125	0.100033547147177	534760	222	8	stim08_sf2_pattern1_cont1_shape1.png	1	54	0	427.293386226785	427.393419773932	0.100033547147177	stim08_sf2_pattern1_cont1_shape1.png	2	1	1	1	1	2	0	0	0	0	0	0	0	0	0	0	0	0	1	3
261.61328125	0.0999965983664879	535784	223	12	stim12_sf2_pattern2_cont1_shape1.png	1	55	0	427.793402648465	427.893399246831	0.0999965983664879	stim12_sf2_pattern2_cont1_shape1.png	2	2	1	1	1	2	0	0	0	0	0	0	0	0	0	0	0	0	1	3
262.11328125	0.100002170007429	536808	224	4	stim04_sf1_pattern2_cont1_shape1.png	1	56	0	428.293383001097	428.393385171104	0.100002170007429	stim04_sf1_pattern2_cont1_shape1.png	1	2	1	1	1	1	0	0	0	0	0	0	0	0	0	0	0	0	1	3
262.61328125	0.100003049740735	537832	225	6	stim06_sf1_pattern2_cont2_shape1.png	1	57	0	428.793378895677	428.893381945418	0.100003049740735	stim06_sf1_pattern2_cont2_shape1.png	1	2	2	1	1	3	0	0	0	0	0	0	0	0	0	0	0	0	1	3
263.11328125	0.100014193024435	538856	226	2	stim02_sf1_pattern1_cont2_shape1.png	1	58	0	429.293359834797	429.393374027822	0.100014193024435	stim02_sf1_pattern1_cont2_shape1.png	1	1	2	1	1	3	0	0	0	0	0	0	0	0	0	0	0	0	1	3
263.61328125	0.0999845753503905	539880	227	1	stim01_sf1_pattern1_cont1_shape2.png	1	59	0	429.793356315866	429.893340891216	0.0999845753503905	stim01_sf1_pattern1_cont1_shape2.png	1	1	1	2	1	1	0	0	0	0	0	0	0	0	0	0	0	0	1	3
264.11328125	0.100000703786463	540904	228	13	stim13_sf2_pattern2_cont1_shape2.png	1	60	0	430.29333608201	430.393336785796	0.100000703786463	stim13_sf2_pattern2_cont1_shape2.png	2	2	1	2	1	2	0	0	0	0	0	0	0	0	0	0	0	0	1	3
264.61328125	0.0999957186331812	541928	229	7	stim07_sf1_pattern2_cont2_shape2.png	1	61	0	430.793329630636	430.893325349269	0.0999957186331812	stim07_sf1_pattern2_cont2_shape2.png	1	2	2	2	1	3	0	0	0	0	0	0	0	0	0	0	0	0	1	3
265.11328125	0.100005982183575	542952	230	5	stim05_sf1_pattern2_cont1_shape2.png	1	62	0	431.293309396779	431.393315378962	0.100005982183575	stim05_sf1_pattern2_cont1_shape2.png	1	2	1	2	1	1	0	0	0	0	0	0	0	0	0	0	0	0	1	3
265.61279296875	0.0999936659227387	543975	231	10	stim10_sf2_pattern1_cont2_shape1.png	1	63	0	431.793309690023	431.893303355946	0.0999936659227387	stim10_sf2_pattern1_cont2_shape1.png	2	1	2	1	1	4	0	0	0	0	0	0	0	0	0	0	0	0	1	3
266.11279296875	0.100005395695007	544999	232	14	stim14_sf2_pattern2_cont2_shape1.png	1	64	0	432.293285937235	432.39329133293	0.100005395695007	stim14_sf2_pattern2_cont2_shape1.png	2	2	2	1	1	4	0	0	0	0	0	0	0	0	0	0	0	0	1	3
266.61279296875	0.1000156592454	546023	233	0	stim00_sf1_pattern1_cont1_shape1.png	1	65	0	432.79325016143	432.893265820676	0.1000156592454	stim00_sf1_pattern1_cont1_shape1.png	1	1	1	1	1	1	0	0	0	0	0	0	0	0	0	0	0	0	1	3
267.11279296875	0.100007741649279	547047	234	15	stim15_sf2_pattern2_cont2_shape2.png	1	66	0	433.293259545248	433.393267286898	0.100007741649279	stim15_sf2_pattern2_cont2_shape2.png	2	2	2	2	1	4	0	0	0	0	0	0	0	0	0	0	0	0	1	3
267.61279296875	0.0999763645104395	548071	235	11	stim11_sf2_pattern1_cont2_shape2.png	1	67	0	433.793263357424	433.893239721934	0.0999763645104395	stim11_sf2_pattern1_cont2_shape2.png	2	1	2	2	1	4	0	0	0	0	0	0	0	0	0	0	0	0	1	3
268.11279296875	0.0999880942817981	549095	236	0	stim00_sf1_pattern1_cont1_shape1.png	1	68	0	434.293215851848	434.39320394613	0.0999880942817981	stim00_sf1_pattern1_cont1_shape1.png	1	1	1	1	1	1	0	0	0	0	0	0	0	0	0	0	0	0	1	3
268.61279296875	0.0999916132132057	550119	237	14	stim14_sf2_pattern2_cont2_shape1.png	1	69	0	434.79319825719	434.893189870403	0.0999916132132057	stim14_sf2_pattern2_cont2_shape1.png	2	2	2	1	1	4	0	0	0	0	0	0	0	0	0	0	0	0	1	3
269.11279296875	0.100010674093028	551143	238	15	stim15_sf2_pattern2_cont2_shape2.png	1	70	0	435.293163947607	435.3931746217	0.100010674093028	stim15_sf2_pattern2_cont2_shape2.png	2	2	2	2	1	4	0	0	0	0	0	0	0	0	0	0	0	0	1	3
269.61279296875	0.0999986510760209	552167	239	5	stim05_sf1_pattern2_cont1_shape2.png	1	71	0	435.793165120584	435.893163771661	0.0999986510760209	stim05_sf1_pattern2_cont1_shape2.png	1	2	1	2	1	1	0	0	0	0	0	0	0	0	0	0	0	0	1	3
270.11279296875	0.100004809206439	553191	240	11	stim11_sf2_pattern1_cont2_shape2.png	1	72	0	436.293153684057	436.393158493263	0.100004809206439	stim11_sf2_pattern1_cont2_shape2.png	2	1	2	2	1	4	0	0	0	0	0	0	0	0	0	0	0	0	1	3
270.61279296875	0.0999801766856763	554215	241	8	stim08_sf2_pattern1_cont1_shape1.png	1	73	0	436.79316277463	436.893142951316	0.0999801766856763	stim08_sf2_pattern1_cont1_shape1.png	2	1	1	1	1	2	0	0	0	0	0	0	0	0	0	0	0	0	1	3
271.11279296875	0.100009207870244	555239	242	1	stim01_sf1_pattern1_cont1_shape2.png	1	74	0	437.293140781308	437.393149989179	0.100009207870244	stim01_sf1_pattern1_cont1_shape2.png	1	1	1	2	1	1	0	0	0	0	0	0	0	0	0	0	0	0	1	3
271.61279296875	0.100004809206439	556263	243	9	stim09_sf2_pattern1_cont1_shape2.png	1	75	0	437.79314430024	437.893149109446	0.100004809206439	stim09_sf2_pattern1_cont1_shape2.png	2	1	1	2	1	2	0	0	0	0	0	0	0	0	0	0	0	0	1	3
272.11279296875	0.100009207870244	557287	244	10	stim10_sf2_pattern1_cont2_shape1.png	1	76	0	438.293128171804	438.393137379674	0.100009207870244	stim10_sf2_pattern1_cont2_shape1.png	2	1	2	1	1	4	0	0	0	0	0	0	0	0	0	0	0	0	1	3
272.61279296875	0.100000410541725	558311	245	3	stim03_sf1_pattern1_cont2_shape2.png	1	77	0	438.793119960963	438.893120371505	0.100000410541725	stim03_sf1_pattern1_cont2_shape2.png	1	1	2	2	1	3	0	0	0	0	0	0	0	0	0	0	0	0	1	3
273.11279296875	0.100008034893108	559335	246	4	stim04_sf1_pattern2_cont1_shape1.png	1	78	0	439.293112336612	439.393120371505	0.100008034893108	stim04_sf1_pattern2_cont1_shape1.png	1	2	1	1	1	1	0	0	0	0	0	0	0	0	0	0	0	0	1	3
273.61279296875	0.100008328137847	560359	247	6	stim06_sf1_pattern2_cont2_shape1.png	1	79	0	439.793110577146	439.893118905284	0.100008328137847	stim06_sf1_pattern2_cont2_shape1.png	1	2	2	1	1	3	0	0	0	0	0	0	0	0	0	0	0	0	1	3
274.11279296875	0.100010674092118	561383	248	7	stim07_sf1_pattern2_cont2_shape2.png	1	80	0	440.293098260885	440.393108934977	0.100010674092118	stim07_sf1_pattern2_cont2_shape2.png	1	2	2	2	1	3	0	0	0	0	0	0	0	0	0	0	0	0	1	3
274.61279296875	0.0999898537465924	562407	249	13	stim13_sf2_pattern2_cont1_shape2.png	1	81	0	440.79309855413	440.893088407876	0.0999898537465924	stim13_sf2_pattern2_cont1_shape2.png	2	2	1	2	1	2	0	0	0	0	0	0	0	0	0	0	0	0	1	3
275.11279296875	0.0999822293952093	563431	250	12	stim12_sf2_pattern2_cont1_shape1.png	1	82	0	441.293091223022	441.393073452417	0.0999822293952093	stim12_sf2_pattern2_cont1_shape1.png	2	2	1	1	1	2	0	0	0	0	0	0	0	0	0	0	0	0	1	3
275.61279296875	0.0999661009591364	564455	251	2	stim02_sf1_pattern1_cont2_shape1.png	1	83	0	441.79307744054	441.8930435415	0.0999661009591364	stim02_sf1_pattern1_cont2_shape1.png	1	1	2	1	1	3	0	0	0	0	0	0	0	0	0	0	0	0	1	3
276.11279296875	0.0999678604248402	565479	252	15	stim15_sf2_pattern2_cont2_shape2.png	1	84	0	442.293059845882	442.393027706307	0.0999678604248402	stim15_sf2_pattern2_cont2_shape2.png	2	2	2	2	1	4	0	0	0	0	0	0	0	0	0	0	0	0	1	3
276.61279296875	0.0999963051226587	566503	253	14	stim14_sf2_pattern2_cont2_shape1.png	1	85	0	442.793043130957	442.89303943608	0.0999963051226587	stim14_sf2_pattern2_cont2_shape1.png	2	2	2	1	1	4	0	0	0	0	0	0	0	0	0	0	0	0	1	3
277.11279296875	0.0999924929456029	567527	254	11	stim11_sf2_pattern1_cont2_shape2.png	1	86	0	443.293034626873	443.393027119819	0.0999924929456029	stim11_sf2_pattern1_cont2_shape2.png	2	1	2	2	1	4	0	0	0	0	0	0	0	0	0	0	0	0	1	3
277.61279296875	0.0999986510769304	568551	255	6	stim06_sf1_pattern2_cont2_shape1.png	1	87	0	443.793017911948	443.893016563025	0.0999986510769304	stim06_sf1_pattern2_cont2_shape1.png	1	2	2	1	1	3	0	0	0	0	0	0	0	0	0	0	0	0	1	3
278.11279296875	0.100045863407104	569575	256	7	stim07_sf1_pattern2_cont2_shape2.png	1	88	0	444.2929586766	444.393004540007	0.100045863407104	stim07_sf1_pattern2_cont2_shape2.png	1	2	2	2	1	3	0	0	0	0	0	0	0	0	0	0	0	0	1	3
278.61279296875	0.0999980645883625	570599	257	3	stim03_sf1_pattern1_cont2_shape2.png	1	89	0	444.792996798358	444.892994862947	0.0999980645883625	stim03_sf1_pattern1_cont2_shape2.png	1	1	2	2	1	3	0	0	0	0	0	0	0	0	0	0	0	0	1	3
279.11279296875	0.10004117149947	571623	258	4	stim04_sf1_pattern2_cont1_shape1.png	1	90	0	445.292932577858	445.392973749357	0.10004117149947	stim04_sf1_pattern2_cont1_shape1.png	1	2	1	1	1	1	0	0	0	0	0	0	0	0	0	0	0	0	1	3
279.61279296875	0.0999992375645888	572647	259	10	stim10_sf2_pattern1_cont2_shape1.png	1	91	0	445.792972165837	445.892971403402	0.0999992375645888	stim10_sf2_pattern1_cont2_shape1.png	2	1	2	1	1	4	0	0	0	0	0	0	0	0	0	0	0	0	1	3
280.11279296875	0.100009501114982	573671	260	0	stim00_sf1_pattern1_cont1_shape1.png	1	92	0	446.292949292782	446.392958793897	0.100009501114982	stim00_sf1_pattern1_cont1_shape1.png	1	1	1	1	1	1	0	0	0	0	0	0	0	0	0	0	0	0	1	3
280.61279296875	0.0999933726789095	574695	261	5	stim05_sf1_pattern2_cont1_shape2.png	1	93	0	446.792951345493	446.892944718172	0.0999933726789095	stim05_sf1_pattern2_cont1_shape2.png	1	2	1	2	1	1	0	0	0	0	0	0	0	0	0	0	0	0	1	3
281.11279296875	0.0999942524113067	575719	262	2	stim02_sf1_pattern1_cont2_shape1.png	1	94	0	447.292937563011	447.392931815422	0.0999942524113067	stim02_sf1_pattern1_cont2_shape1.png	1	1	2	1	1	3	0	0	0	0	0	0	0	0	0	0	0	0	1	3
281.61279296875	0.0999614090505929	576743	263	1	stim01_sf1_pattern1_cont1_shape2.png	1	95	0	447.79292319404	447.89288460309	0.0999614090505929	stim01_sf1_pattern1_cont1_shape2.png	1	1	1	2	1	1	0	0	0	0	0	0	0	0	0	0	0	0	1	3
282.11279296875	0.100009794359721	577767	264	9	stim09_sf2_pattern1_cont1_shape2.png	1	96	0	448.292902373695	448.392912168055	0.100009794359721	stim09_sf2_pattern1_cont1_shape2.png	2	1	1	2	1	2	0	0	0	0	0	0	0	0	0	0	0	0	1	3
282.6123046875	0.100020937642512	578790	265	13	stim13_sf2_pattern2_cont1_shape2.png	1	97	0	448.792876861441	448.892897799084	0.100020937642512	stim13_sf2_pattern2_cont1_shape2.png	2	2	1	2	1	2	0	0	0	0	0	0	0	0	0	0	0	0	1	3
283.1123046875	0.100020644398683	579814	266	12	stim12_sf2_pattern2_cont1_shape1.png	1	98	0	449.292864838425	449.392885482824	0.100020644398683	stim12_sf2_pattern2_cont1_shape1.png	2	2	1	1	1	2	0	0	0	0	0	0	0	0	0	0	0	0	1	3
283.6123046875	0.100003342985474	580838	267	8	stim08_sf2_pattern1_cont1_shape1.png	1	99	0	449.792841672125	449.892845015111	0.100003342985474	stim08_sf2_pattern1_cont1_shape1.png	2	1	1	1	1	2	0	0	0	0	0	0	0	0	0	0	0	0	1	3
284.1123046875	0.0999552509201749	581862	268	5	stim05_sf1_pattern2_cont1_shape2.png	1	100	0	450.292856627585	450.392811878505	0.0999552509201749	stim05_sf1_pattern2_cont1_shape2.png	1	2	1	2	1	1	0	0	0	0	0	0	0	0	0	0	0	0	1	3
284.6123046875	0.0999713793562478	582886	269	7	stim07_sf1_pattern2_cont2_shape2.png	1	101	0	450.792833168041	450.892804547398	0.0999713793562478	stim07_sf1_pattern2_cont2_shape2.png	1	2	2	2	1	3	0	0	0	0	0	0	0	0	0	0	0	0	1	3
285.1123046875	0.0999775374866658	583910	270	13	stim13_sf2_pattern2_cont1_shape2.png	1	102	0	451.292824370712	451.392801908199	0.0999775374866658	stim13_sf2_pattern2_cont1_shape2.png	2	2	1	2	1	2	0	0	0	0	0	0	0	0	0	0	0	0	1	3
285.6123046875	0.0999968916112266	584934	271	15	stim15_sf2_pattern2_cont2_shape2.png	1	103	0	451.792785662465	451.892782554076	0.0999968916112266	stim15_sf2_pattern2_cont2_shape2.png	2	2	2	2	1	4	0	0	0	0	0	0	0	0	0	0	0	0	1	3
286.1123046875	0.0999963051217492	585958	272	1	stim01_sf1_pattern1_cont1_shape2.png	1	104	0	452.292771293494	452.392767598616	0.0999963051217492	stim01_sf1_pattern1_cont1_shape2.png	1	1	1	2	1	1	0	0	0	0	0	0	0	0	0	0	0	0	1	3
286.6123046875	0.100021524131989	586982	273	9	stim09_sf2_pattern1_cont1_shape2.png	1	105	0	452.792763375898	452.89278490003	0.100021524131989	stim09_sf2_pattern1_cont1_shape2.png	2	1	1	2	1	2	0	0	0	0	0	0	0	0	0	0	0	0	1	3
287.1123046875	0.100003049740735	588006	274	2	stim02_sf1_pattern1_cont2_shape1.png	1	106	0	453.292771293494	453.392774343235	0.100003049740735	stim02_sf1_pattern1_cont2_shape1.png	1	1	2	1	1	3	0	0	0	0	0	0	0	0	0	0	0	0	1	3
287.6123046875	0.0999746050438262	589030	275	11	stim11_sf2_pattern1_cont2_shape2.png	1	107	0	453.792765135364	453.892739740408	0.0999746050438262	stim11_sf2_pattern1_cont2_shape2.png	2	1	2	2	1	4	0	0	0	0	0	0	0	0	0	0	0	0	1	3
288.1123046875	0.099982522639948	590054	276	0	stim00_sf1_pattern1_cont1_shape1.png	1	108	0	454.292769827273	454.392752349913	0.099982522639948	stim00_sf1_pattern1_cont1_shape1.png	1	1	1	1	1	1	0	0	0	0	0	0	0	0	0	0	0	0	1	3
288.6123046875	0.100010674092118	591078	277	14	stim14_sf2_pattern2_cont2_shape1.png	1	109	0	454.792748127195	454.892758801288	0.100010674092118	stim14_sf2_pattern2_cont2_shape1.png	2	2	2	1	1	4	0	0	0	0	0	0	0	0	0	0	0	0	1	3
289.1123046875	0.0999904402360698	592102	278	3	stim03_sf1_pattern1_cont2_shape2.png	1	110	0	455.292761029944	455.39275147018	0.0999904402360698	stim03_sf1_pattern1_cont2_shape2.png	1	1	2	2	1	3	0	0	0	0	0	0	0	0	0	0	0	0	1	3
289.6123046875	0.0999977713427143	593126	279	12	stim12_sf2_pattern2_cont1_shape1.png	1	111	0	455.792737863645	455.892735634988	0.0999977713427143	stim12_sf2_pattern2_cont1_shape1.png	2	2	1	1	1	2	0	0	0	0	0	0	0	0	0	0	0	0	1	3
290.1123046875	0.100010674092118	594150	280	8	stim08_sf2_pattern1_cont1_shape1.png	1	112	0	456.292708245971	456.392718920063	0.100010674092118	stim08_sf2_pattern1_cont1_shape1.png	2	1	1	1	1	2	0	0	0	0	0	0	0	0	0	0	0	0	1	3
290.6123046875	0.099998064587453	595174	281	10	stim10_sf2_pattern1_cont2_shape1.png	1	113	0	456.792710005437	456.892708070024	0.099998064587453	stim10_sf2_pattern1_cont2_shape1.png	2	1	2	1	1	4	0	0	0	0	0	0	0	0	0	0	0	0	1	3
291.1123046875	0.100005395695007	596198	282	6	stim06_sf1_pattern2_cont2_shape1.png	1	114	0	457.292690064824	457.392695460519	0.100005395695007	stim06_sf1_pattern2_cont2_shape1.png	1	2	2	1	1	3	0	0	0	0	0	0	0	0	0	0	0	0	1	3
291.6123046875	0.0999880942817981	597222	283	4	stim04_sf1_pattern2_cont1_shape1.png	1	115	0	457.792692117534	457.892680211816	0.0999880942817981	stim04_sf1_pattern2_cont1_shape1.png	1	2	1	1	1	1	0	0	0	0	0	0	0	0	0	0	0	0	1	3
292.1123046875	0.100014193024435	598246	284	3	stim03_sf1_pattern1_cont2_shape2.png	1	116	0	458.292637867339	458.392652060364	0.100014193024435	stim03_sf1_pattern1_cont2_shape2.png	1	1	2	2	1	3	0	0	0	0	0	0	0	0	0	0	0	0	1	3
292.6123046875	0.0999954253884425	599270	285	6	stim06_sf1_pattern2_cont2_shape1.png	1	117	0	458.792661913372	458.892657338761	0.0999954253884425	stim06_sf1_pattern2_cont2_shape1.png	1	2	2	1	1	3	0	0	0	0	0	0	0	0	0	0	0	0	1	3
293.1123046875	0.100006568672143	600294	286	14	stim14_sf2_pattern2_cont2_shape1.png	1	118	0	459.292637574095	459.392644142767	0.100006568672143	stim14_sf2_pattern2_cont2_shape1.png	2	2	2	1	1	4	0	0	0	0	0	0	0	0	0	0	0	0	1	3
293.6123046875	0.0999965983664879	601318	287	9	stim09_sf2_pattern1_cont1_shape2.png	1	119	0	459.792639333561	459.892635931928	0.0999965983664879	stim09_sf2_pattern1_cont1_shape2.png	2	1	1	2	1	2	0	0	0	0	0	0	0	0	0	0	0	0	1	3
294.1123046875	0.100002756495996	602342	288	12	stim12_sf2_pattern2_cont1_shape1.png	1	120	0	460.292619392949	460.392622149445	0.100002756495996	stim12_sf2_pattern2_cont1_shape1.png	2	2	1	1	1	2	0	0	0	0	0	0	0	0	0	0	0	0	1	3
294.6123046875	0.0999766577533592	603366	289	7	stim07_sf1_pattern2_cont2_shape2.png	1	121	0	460.792614114552	460.892590772305	0.0999766577533592	stim07_sf1_pattern2_cont2_shape2.png	1	2	2	2	1	3	0	0	0	0	0	0	0	0	0	0	0	0	1	3
295.1123046875	0.100006568672143	604390	290	0	stim00_sf1_pattern1_cont1_shape1.png	1	122	0	461.292590655008	461.39259722368	0.100006568672143	stim00_sf1_pattern1_cont1_shape1.png	1	1	1	1	1	1	0	0	0	0	0	0	0	0	0	0	0	0	1	3
295.6123046875	0.0999930794350803	605414	291	5	stim05_sf1_pattern2_cont1_shape2.png	1	123	0	461.792592121229	461.892585200664	0.0999930794350803	stim05_sf1_pattern2_cont1_shape2.png	1	2	1	2	1	1	0	0	0	0	0	0	0	0	0	0	0	0	1	3
296.1123046875	0.1000045159617	606438	292	15	stim15_sf2_pattern2_cont2_shape2.png	1	124	0	462.292570127907	462.392574643869	0.1000045159617	stim15_sf2_pattern2_cont2_shape2.png	2	2	2	2	1	4	0	0	0	0	0	0	0	0	0	0	0	0	1	3
296.6123046875	0.0999889740151048	607462	293	11	stim11_sf2_pattern1_cont2_shape2.png	1	125	0	462.79257100764	462.892559981655	0.0999889740151048	stim11_sf2_pattern1_cont2_shape2.png	2	1	2	2	1	4	0	0	0	0	0	0	0	0	0	0	0	0	1	3
297.1123046875	0.100027975506237	608486	294	8	stim08_sf2_pattern1_cont1_shape1.png	1	126	0	463.292520276376	463.392548251883	0.100027975506237	stim08_sf2_pattern1_cont1_shape1.png	2	1	1	1	1	2	0	0	0	0	0	0	0	0	0	0	0	0	1	3
297.6123046875	0.0999872145484915	609510	295	13	stim13_sf2_pattern2_cont1_shape2.png	1	127	0	463.792551067027	463.892538281576	0.0999872145484915	stim13_sf2_pattern2_cont1_shape2.png	2	2	1	2	1	2	0	0	0	0	0	0	0	0	0	0	0	0	1	3
298.1123046875	0.100007741649279	610534	296	1	stim01_sf1_pattern1_cont1_shape2.png	1	128	0	464.292518223667	464.392525965316	0.100007741649279	stim01_sf1_pattern1_cont1_shape2.png	1	1	1	2	1	1	0	0	0	0	0	0	0	0	0	0	0	0	1	3
298.6123046875	0.099989267258934	611558	297	4	stim04_sf1_pattern2_cont1_shape1.png	1	129	0	464.792504734429	464.892494001688	0.099989267258934	stim04_sf1_pattern2_cont1_shape1.png	1	2	1	1	1	1	0	0	0	0	0	0	0	0	0	0	0	0	1	3
299.1123046875	0.0999801766856763	612582	298	10	stim10_sf2_pattern1_cont2_shape1.png	1	130	0	465.292491245191	465.392471421877	0.0999801766856763	stim10_sf2_pattern1_cont2_shape1.png	2	1	2	1	1	4	0	0	0	0	0	0	0	0	0	0	0	0	1	3
299.6123046875	0.100008914626414	613606	299	2	stim02_sf1_pattern1_cont2_shape1.png	1	131	0	465.792461627518	465.892470542144	0.100008914626414	stim02_sf1_pattern1_cont2_shape1.png	1	1	2	1	1	3	0	0	0	0	0	0	0	0	0	0	0	0	1	3
300.11181640625	0.100000997031202	614629	300	15	stim15_sf2_pattern2_cont2_shape2.png	1	132	0	466.292431716599	466.39243271363	0.100000997031202	stim15_sf2_pattern2_cont2_shape2.png	2	2	2	2	1	4	0	0	0	0	0	0	0	0	0	0	0	0	1	3
300.61181640625	0.10001859168915	615653	301	12	stim12_sf2_pattern2_cont1_shape1.png	1	133	0	466.792427317934	466.892445909623	0.10001859168915	stim12_sf2_pattern2_cont1_shape1.png	2	2	1	1	1	2	0	0	0	0	0	0	0	0	0	0	0	0	1	3
301.11181640625	0.100004222717871	616677	302	14	stim14_sf2_pattern2_cont2_shape1.png	1	134	0	467.292405031368	467.392409254086	0.100004222717871	stim14_sf2_pattern2_cont2_shape1.png	2	2	2	1	1	4	0	0	0	0	0	0	0	0	0	0	0	0	1	3
301.61181640625	0.0999963051217492	617701	303	2	stim02_sf1_pattern1_cont2_shape1.png	1	135	0	467.792397407016	467.892393712138	0.0999963051217492	stim02_sf1_pattern1_cont2_shape1.png	1	1	2	1	1	3	0	0	0	0	0	0	0	0	0	0	0	0	1	3
302.11181640625	0.100053487760306	618725	304	8	stim08_sf2_pattern1_cont1_shape1.png	1	136	0	468.292364563655	468.392418051415	0.100053487760306	stim08_sf2_pattern1_cont1_shape1.png	2	1	1	1	1	2	0	0	0	0	0	0	0	0	0	0	0	0	1	3
302.61181640625	0.0999133169862034	619749	305	11	stim11_sf2_pattern1_cont2_shape2.png	1	137	0	468.792425558468	468.892338875455	0.0999133169862034	stim11_sf2_pattern1_cont2_shape2.png	2	1	2	2	1	4	0	0	0	0	0	0	0	0	0	0	0	0	1	3
303.11181640625	0.0999986510760209	620773	306	3	stim03_sf1_pattern1_cont2_shape2.png	1	138	0	469.292389782665	469.392388433741	0.0999986510760209	stim03_sf1_pattern1_cont2_shape2.png	1	1	2	2	1	3	0	0	0	0	0	0	0	0	0	0	0	0	1	3
303.61181640625	0.099998064587453	621797	307	13	stim13_sf2_pattern2_cont1_shape2.png	1	139	0	469.792376000183	469.892374064771	0.099998064587453	stim13_sf2_pattern2_cont1_shape2.png	2	2	1	2	1	2	0	0	0	0	0	0	0	0	0	0	0	0	1	3
304.11181640625	0.0999948388998746	622821	308	5	stim05_sf1_pattern2_cont1_shape2.png	1	140	0	470.292396527284	470.392391366184	0.0999948388998746	stim05_sf1_pattern2_cont1_shape2.png	1	2	1	2	1	1	0	0	0	0	0	0	0	0	0	0	0	0	1	3
304.61181640625	0.0999851618389584	623845	309	7	stim07_sf1_pattern2_cont2_shape2.png	1	141	0	470.792388902932	470.892374064771	0.0999851618389584	stim07_sf1_pattern2_cont2_shape2.png	1	2	2	2	1	3	0	0	0	0	0	0	0	0	0	0	0	0	1	3
305.11181640625	0.0999790037085404	624869	310	1	stim01_sf1_pattern1_cont1_shape2.png	1	142	0	471.292373067739	471.392352071448	0.0999790037085404	stim01_sf1_pattern1_cont1_shape2.png	1	1	1	2	1	1	0	0	0	0	0	0	0	0	0	0	0	0	1	3
305.61181640625	0.0999945456560454	625893	311	6	stim06_sf1_pattern2_cont2_shape1.png	1	143	0	471.792353127127	471.892347672783	0.0999945456560454	stim06_sf1_pattern2_cont2_shape1.png	1	2	2	1	1	3	0	0	0	0	0	0	0	0	0	0	0	0	1	3
306.11181640625	0.0999983578312822	626917	312	9	stim09_sf2_pattern1_cont1_shape2.png	1	144	0	472.292344623043	472.392342980875	0.0999983578312822	stim09_sf2_pattern1_cont1_shape2.png	2	1	1	2	1	2	0	0	0	0	0	0	0	0	0	0	0	0	1	3
306.61181640625	0.0999995308093276	627941	313	10	stim10_sf2_pattern1_cont2_shape1.png	1	145	0	472.792321749987	472.892321280797	0.0999995308093276	stim10_sf2_pattern1_cont2_shape1.png	2	1	2	1	1	4	0	0	0	0	0	0	0	0	0	0	0	0	1	3
307.11181640625	0.100008328137847	628965	314	4	stim04_sf1_pattern2_cont1_shape1.png	1	146	0	473.292301809376	473.392310137514	0.100008328137847	stim04_sf1_pattern2_cont1_shape1.png	1	2	1	1	1	1	0	0	0	0	0	0	0	0	0	0	0	0	1	3
307.61181640625	0.0999954253884425	629989	315	0	stim00_sf1_pattern1_cont1_shape1.png	1	147	0	473.792302395865	473.892297821253	0.0999954253884425	stim00_sf1_pattern1_cont1_shape1.png	1	1	1	1	1	1	0	0	0	0	0	0	0	0	0	0	0	0	1	3
308.11181640625	0.100008914626414	631013	316	15	stim15_sf2_pattern2_cont2_shape2.png	1	148	0	474.292278056588	474.392286971214	0.100008914626414	stim15_sf2_pattern2_cont2_shape2.png	2	2	2	2	1	4	0	0	0	0	0	0	0	0	0	0	0	0	1	3
308.61181640625	0.0999939591674774	632037	317	11	stim11_sf2_pattern1_cont2_shape2.png	1	149	0	474.792280695787	474.892274654954	0.0999939591674774	stim11_sf2_pattern1_cont2_shape2.png	2	1	2	2	1	4	0	0	0	0	0	0	0	0	0	0	0	0	1	3
309.11181640625	0.100023576841522	633061	318	3	stim03_sf1_pattern1_cont2_shape2.png	1	150	0	475.292242867272	475.392266444113	0.100023576841522	stim03_sf1_pattern1_cont2_shape2.png	1	1	2	2	1	3	0	0	0	0	0	0	0	0	0	0	0	0	1	3
309.61181640625	0.100000117297895	634085	319	5	stim05_sf1_pattern2_cont1_shape2.png	1	151	0	475.792250784868	475.892250902166	0.100000117297895	stim05_sf1_pattern2_cont1_shape2.png	1	2	1	2	1	1	0	0	0	0	0	0	0	0	0	0	0	0	1	3
310.11181640625	0.100025629551965	635109	320	0	stim00_sf1_pattern1_cont1_shape1.png	1	152	0	476.292215009064	476.392240638615	0.100025629551965	stim00_sf1_pattern1_cont1_shape1.png	1	1	1	1	1	1	0	0	0	0	0	0	0	0	0	0	0	0	1	3
310.61181640625	0.099984575349481	636133	321	14	stim14_sf2_pattern2_cont2_shape1.png	1	153	0	476.792228205058	476.892212780407	0.099984575349481	stim14_sf2_pattern2_cont2_shape1.png	2	2	2	1	1	4	0	0	0	0	0	0	0	0	0	0	0	0	1	3
311.11181640625	0.100007155160711	637157	322	10	stim10_sf2_pattern1_cont2_shape1.png	1	154	0	477.292210023911	477.392217179072	0.100007155160711	stim10_sf2_pattern1_cont2_shape1.png	2	1	2	1	1	4	0	0	0	0	0	0	0	0	0	0	0	0	1	3
311.61181640625	0.0999963051217492	638181	323	6	stim06_sf1_pattern2_cont2_shape1.png	1	155	0	477.79220650498	477.892202810101	0.0999963051217492	stim06_sf1_pattern2_cont2_shape1.png	1	2	2	1	1	3	0	0	0	0	0	0	0	0	0	0	0	0	1	3
312.11181640625	0.0999980645883625	639205	324	13	stim13_sf2_pattern2_cont1_shape2.png	1	156	0	478.292181285969	478.392179350558	0.0999980645883625	stim13_sf2_pattern2_cont1_shape2.png	2	2	1	2	1	2	0	0	0	0	0	0	0	0	0	0	0	0	1	3
312.61181640625	0.0999699131343732	640229	325	7	stim07_sf1_pattern2_cont2_shape2.png	1	157	0	478.792184804902	478.892154718036	0.0999699131343732	stim07_sf1_pattern2_cont2_shape2.png	1	2	2	2	1	3	0	0	0	0	0	0	0	0	0	0	0	0	1	3
313.11181640625	0.0999971848550558	641253	326	8	stim08_sf2_pattern1_cont1_shape1.png	1	158	0	479.292173661618	479.392170846473	0.0999971848550558	stim08_sf2_pattern1_cont1_shape1.png	2	1	1	1	1	2	0	0	0	0	0	0	0	0	0	0	0	0	1	3
313.61181640625	0.0999933726789095	642277	327	12	stim12_sf2_pattern2_cont1_shape1.png	1	159	0	479.792151081807	479.892144454486	0.0999933726789095	stim12_sf2_pattern2_cont1_shape1.png	2	2	1	1	1	2	0	0	0	0	0	0	0	0	0	0	0	0	1	3
314.11181640625	0.0999869213046622	643301	328	4	stim04_sf1_pattern2_cont1_shape1.png	1	160	0	480.292121170889	480.392108092194	0.0999869213046622	stim04_sf1_pattern2_cont1_shape1.png	1	2	1	1	1	1	0	0	0	0	0	0	0	0	0	0	0	0	1	3
314.61181640625	0.100031201192905	644325	329	1	stim01_sf1_pattern1_cont1_shape2.png	1	161	0	480.792090086994	480.892121288187	0.100031201192905	stim01_sf1_pattern1_cont1_shape2.png	1	1	1	2	1	1	0	0	0	0	0	0	0	0	0	0	0	0	1	3
315.11181640625	0.0999872145484915	645349	330	9	stim09_sf2_pattern1_cont1_shape2.png	1	162	0	481.292079823444	481.392067037992	0.0999872145484915	stim09_sf2_pattern1_cont1_shape2.png	2	1	1	2	1	2	0	0	0	0	0	0	0	0	0	0	0	0	1	3
315.61181640625	0.0999968916103171	646373	331	2	stim02_sf1_pattern1_cont2_shape1.png	1	163	0	481.792065161228	481.892062052839	0.0999968916103171	stim02_sf1_pattern1_cont2_shape1.png	1	1	2	1	1	3	0	0	0	0	0	0	0	0	0	0	0	0	1	3
341.2861328125	0.0999875077923207	698954	332	7	stim07_sf1_pattern2_cont2_shape2.png	2	0	0	507.466500358051	507.566487865844	0.0999875077923207	stim07_sf1_pattern2_cont2_shape2.png	1	2	2	2	1	3	0	0	0	0	0	0	0	0	0	0	0	0	1	3
341.7861328125	0.0999930794350803	699978	333	12	stim12_sf2_pattern2_cont1_shape1.png	2	1	0	507.966481297171	508.066474376606	0.0999930794350803	stim12_sf2_pattern2_cont1_shape1.png	2	2	1	1	1	2	0	0	0	0	0	0	0	0	0	0	0	0	1	3
342.28564453125	0.0999772442428366	701001	334	2	stim02_sf1_pattern1_cont2_shape1.png	2	2	0	508.466468101178	508.566445345421	0.0999772442428366	stim02_sf1_pattern1_cont2_shape1.png	1	1	2	1	1	3	0	0	0	0	0	0	0	0	0	0	0	0	1	3
342.78564453125	0.100003049740735	702025	335	15	stim15_sf2_pattern2_cont2_shape2.png	2	3	0	508.966448453811	509.066451503551	0.100003049740735	stim15_sf2_pattern2_cont2_shape2.png	2	2	2	2	1	4	0	0	0	0	0	0	0	0	0	0	0	0	1	3
343.28564453125	0.0999977713436238	703049	336	14	stim14_sf2_pattern2_cont2_shape1.png	2	4	0	509.466442882169	509.566440653512	0.0999977713436238	stim14_sf2_pattern2_cont2_shape1.png	2	2	2	1	1	4	0	0	0	0	0	0	0	0	0	0	0	0	1	3
343.78564453125	0.0999831091285159	704073	337	9	stim09_sf2_pattern1_cont1_shape2.png	2	5	0	509.966445814612	510.06642892374	0.0999831091285159	stim09_sf2_pattern1_cont1_shape2.png	2	1	1	2	1	2	0	0	0	0	0	0	0	0	0	0	0	0	1	3
344.28564453125	0.100025336307226	705097	338	10	stim10_sf2_pattern1_cont2_shape1.png	2	6	0	510.466397722547	510.566423058855	0.100025336307226	stim10_sf2_pattern1_cont2_shape1.png	2	1	2	1	1	4	0	0	0	0	0	0	0	0	0	0	0	0	1	3
344.78564453125	0.10003823905663	706121	339	4	stim04_sf1_pattern2_cont1_shape1.png	2	7	0	510.966377781935	511.066416020992	0.10003823905663	stim04_sf1_pattern2_cont1_shape1.png	1	2	1	1	1	1	0	0	0	0	0	0	0	0	0	0	0	0	1	3
345.28564453125	0.100027682261498	707145	340	1	stim01_sf1_pattern1_cont1_shape2.png	2	8	0	511.466353735903	511.566381418164	0.100027682261498	stim01_sf1_pattern1_cont1_shape2.png	1	1	1	2	1	1	0	0	0	0	0	0	0	0	0	0	0	0	1	3
345.78564453125	0.0999968916103171	708169	341	8	stim08_sf2_pattern1_cont1_shape1.png	2	9	0	511.96636106701	512.066357958621	0.0999968916103171	stim08_sf2_pattern1_cont1_shape1.png	2	1	1	1	1	2	0	0	0	0	0	0	0	0	0	0	0	0	1	3
346.28564453125	0.09997636450953	709193	342	6	stim06_sf1_pattern2_cont2_shape1.png	2	10	0	512.466347871017	512.566324235527	0.09997636450953	stim06_sf1_pattern2_cont2_shape1.png	1	2	2	1	1	3	0	0	0	0	0	0	0	0	0	0	0	0	1	3
346.78564453125	0.0999842821056518	710217	343	3	stim03_sf1_pattern1_cont2_shape2.png	2	11	0	512.966359307545	513.06634358965	0.0999842821056518	stim03_sf1_pattern1_cont2_shape2.png	1	1	2	2	1	3	0	0	0	0	0	0	0	0	0	0	0	0	1	3
347.28564453125	0.0999954253884425	711241	344	5	stim05_sf1_pattern2_cont1_shape2.png	2	12	0	513.466331449336	513.566326874725	0.0999954253884425	stim05_sf1_pattern2_cont1_shape2.png	1	2	1	2	1	1	0	0	0	0	0	0	0	0	0	0	0	0	1	3
347.78564453125	0.0999960118770105	712265	345	11	stim11_sf2_pattern1_cont2_shape2.png	2	13	0	513.966317080366	514.066313092243	0.0999960118770105	stim11_sf2_pattern1_cont2_shape2.png	2	1	2	2	1	4	0	0	0	0	0	0	0	0	0	0	0	0	1	3
348.28564453125	0.0999968916103171	713289	346	13	stim13_sf2_pattern2_cont1_shape2.png	2	14	0	514.466310922236	514.566307813846	0.0999968916103171	stim13_sf2_pattern2_cont1_shape2.png	2	2	1	2	1	2	0	0	0	0	0	0	0	0	0	0	0	0	1	3
348.78564453125	0.099998064587453	714313	347	0	stim00_sf1_pattern1_cont1_shape1.png	2	15	0	514.966292741089	515.066290805677	0.099998064587453	stim00_sf1_pattern1_cont1_shape1.png	1	1	1	1	1	1	0	0	0	0	0	0	0	0	0	0	0	0	1	3
349.28564453125	0.100002756495996	715337	348	3	stim03_sf1_pattern1_cont2_shape2.png	2	16	0	515.466284530249	515.566287286745	0.100002756495996	stim03_sf1_pattern1_cont2_shape2.png	1	1	2	2	1	3	0	0	0	0	0	0	0	0	0	0	0	0	1	3
349.78564453125	0.0999661009591364	716361	349	5	stim05_sf1_pattern2_cont1_shape2.png	2	17	0	515.966301245174	516.066267346133	0.0999661009591364	stim05_sf1_pattern2_cont1_shape2.png	1	2	1	2	1	1	0	0	0	0	0	0	0	0	0	0	0	0	1	3
350.28564453125	0.0999951321446133	717385	350	11	stim11_sf2_pattern1_cont2_shape2.png	2	18	0	516.466283357272	516.566278489417	0.0999951321446133	stim11_sf2_pattern1_cont2_shape2.png	2	1	2	2	1	4	0	0	0	0	0	0	0	0	0	0	0	0	1	3
350.78564453125	0.0999898537465924	718409	351	7	stim07_sf1_pattern2_cont2_shape2.png	2	19	0	516.966274853187	517.066264706934	0.0999898537465924	stim07_sf1_pattern2_cont2_shape2.png	1	2	2	2	1	3	0	0	0	0	0	0	0	0	0	0	0	0	1	3
351.28564453125	0.099998064587453	719433	352	2	stim02_sf1_pattern1_cont2_shape1.png	2	20	0	517.466251980132	517.56625004472	0.099998064587453	stim02_sf1_pattern1_cont2_shape1.png	1	1	2	1	1	3	0	0	0	0	0	0	0	0	0	0	0	0	1	3
351.78564453125	0.100008621382585	720457	353	0	stim00_sf1_pattern1_cont1_shape1.png	2	21	0	517.966232332764	518.066240954146	0.100008621382585	stim00_sf1_pattern1_cont1_shape1.png	1	1	1	1	1	1	0	0	0	0	0	0	0	0	0	0	0	0	1	3
352.28564453125	0.0999948389007841	721481	354	14	stim14_sf2_pattern2_cont2_shape1.png	2	22	0	518.466229693565	518.566224532466	0.0999948389007841	stim14_sf2_pattern2_cont2_shape1.png	2	2	2	1	1	4	0	0	0	0	0	0	0	0	0	0	0	0	1	3
352.78564453125	0.100005688939746	722505	355	1	stim01_sf1_pattern1_cont1_shape2.png	2	23	0	518.966195383982	519.066201072922	0.100005688939746	stim01_sf1_pattern1_cont1_shape2.png	1	1	1	2	1	1	0	0	0	0	0	0	0	0	0	0	0	0	1	3
353.28564453125	0.0999807631742442	723529	356	13	stim13_sf2_pattern2_cont1_shape2.png	2	24	0	519.466200369136	519.56618113231	0.0999807631742442	stim13_sf2_pattern2_cont1_shape2.png	2	2	1	2	1	2	0	0	0	0	0	0	0	0	0	0	0	0	1	3
353.78564453125	0.09999601187792	724553	357	15	stim15_sf2_pattern2_cont2_shape2.png	2	25	0	519.966194211005	520.066190222883	0.09999601187792	stim15_sf2_pattern2_cont2_shape2.png	2	2	2	2	1	4	0	0	0	0	0	0	0	0	0	0	0	0	1	3
354.28564453125	0.0999963051217492	725577	358	9	stim09_sf2_pattern1_cont1_shape2.png	2	26	0	520.466181894745	520.566178199867	0.0999963051217492	stim09_sf2_pattern1_cont1_shape2.png	2	1	1	2	1	2	0	0	0	0	0	0	0	0	0	0	0	0	1	3
354.78564453125	0.0999919064579444	726601	359	6	stim06_sf1_pattern2_cont2_shape1.png	2	27	0	520.966174270393	521.066166176851	0.0999919064579444	stim06_sf1_pattern2_cont2_shape1.png	1	2	2	1	1	3	0	0	0	0	0	0	0	0	0	0	0	0	1	3
355.28564453125	0.0999971848550558	727625	360	4	stim04_sf1_pattern2_cont1_shape1.png	2	28	1	521.466156382491	521.566153567346	0.0999971848550558	stim04_sf1_pattern2_cont1_shape1.png	1	2	1	1	1	1	0	0	0	0	0	0	0	0	0	0	0	0	1	3
355.78564453125	0.0999913199693765	728649	361	4	stim04_sf1_pattern2_cont1_shape1.png	2	29	1	521.966149051384	522.066140371353	0.0999913199693765	stim04_sf1_pattern2_cont1_shape1.png	1	2	1	1	1	1	0	0	0	0	0	0	0	0	0	0	0	0	1	3
356.28564453125	0.100000997030293	729673	362	5	stim05_sf1_pattern2_cont1_shape2.png	2	30	2	522.466135562147	522.566136559177	0.100000997030293	stim05_sf1_pattern2_cont1_shape2.png	1	2	1	2	1	1	0	0	0	0	0	0	0	0	0	0	0	0	1	3
356.78564453125	0.0999933726789095	730697	363	13	stim13_sf2_pattern2_cont1_shape2.png	2	31	2	522.966124418863	523.066117791542	0.0999933726789095	stim13_sf2_pattern2_cont1_shape2.png	2	2	1	2	1	2	0	0	0	0	0	0	0	0	0	0	0	0	1	3
357.28564453125	0.0999963051217492	731721	364	8	stim08_sf2_pattern1_cont1_shape1.png	2	32	0	523.466109170159	523.566105475281	0.0999963051217492	stim08_sf2_pattern1_cont1_shape1.png	2	1	1	1	1	2	0	0	0	0	0	0	0	0	0	0	0	0	1	3
357.78564453125	0.100014193023526	732745	365	12	stim12_sf2_pattern2_cont1_shape1.png	2	33	0	523.966085417372	524.066099610395	0.100014193023526	stim12_sf2_pattern2_cont1_shape1.png	2	2	1	1	1	2	0	0	0	0	0	0	0	0	0	0	0	0	1	3
358.28564453125	0.0999795901971083	733769	366	10	stim10_sf2_pattern1_cont2_shape1.png	2	34	0	524.46608395115	524.566063541347	0.0999795901971083	stim10_sf2_pattern1_cont2_shape1.png	2	1	2	1	1	4	0	0	0	0	0	0	0	0	0	0	0	0	1	3
358.78564453125	0.100008621381676	734793	367	4	stim04_sf1_pattern2_cont1_shape1.png	2	35	0	524.966073394356	525.066082015737	0.100008621381676	stim04_sf1_pattern2_cont1_shape1.png	1	2	1	1	1	1	0	0	0	0	0	0	0	0	0	0	0	0	1	3
359.28515625	0.0999983578312822	735816	368	2	stim02_sf1_pattern1_cont2_shape1.png	2	36	0	525.466061371339	525.566059729171	0.0999983578312822	stim02_sf1_pattern1_cont2_shape1.png	1	1	2	1	1	3	0	0	0	0	0	0	0	0	0	0	0	0	1	3
359.78515625	0.0999798834409376	736840	369	12	stim12_sf2_pattern2_cont1_shape1.png	2	37	0	525.966026182024	526.066006065465	0.0999798834409376	stim12_sf2_pattern2_cont1_shape1.png	2	2	1	1	1	2	0	0	0	0	0	0	0	0	0	0	0	0	1	3
360.28515625	0.0999822293961188	737864	370	13	stim13_sf2_pattern2_cont1_shape2.png	2	38	0	526.466043483437	526.566025712833	0.0999822293961188	stim13_sf2_pattern2_cont1_shape2.png	2	2	1	2	1	2	0	0	0	0	0	0	0	0	0	0	0	0	1	3
360.78515625	0.0999734320666903	738888	371	10	stim10_sf2_pattern1_cont2_shape1.png	2	39	0	526.966020610382	527.065994042448	0.0999734320666903	stim10_sf2_pattern1_cont2_shape1.png	2	1	2	1	1	4	0	0	0	0	0	0	0	0	0	0	0	0	1	3
361.28515625	0.0999734320666903	739912	372	11	stim11_sf2_pattern1_cont2_shape2.png	2	40	0	527.465992752173	527.56596618424	0.0999734320666903	stim11_sf2_pattern1_cont2_shape2.png	2	1	2	2	1	4	0	0	0	0	0	0	0	0	0	0	0	0	1	3
361.78515625	0.0999921997008641	740936	373	9	stim09_sf2_pattern1_cont1_shape2.png	2	41	0	527.965987180532	528.065979380233	0.0999921997008641	stim09_sf2_pattern1_cont1_shape2.png	2	1	1	2	1	2	0	0	0	0	0	0	0	0	0	0	0	0	1	3
362.28515625	0.0999704996238506	741960	374	6	stim06_sf1_pattern2_cont2_shape1.png	2	42	0	528.465973691294	528.565944190918	0.0999704996238506	stim06_sf1_pattern2_cont2_shape1.png	1	2	2	1	1	3	0	0	0	0	0	0	0	0	0	0	0	0	1	3
362.78515625	0.0999672739371817	742984	375	8	stim08_sf2_pattern1_cont1_shape1.png	2	43	0	528.965963720988	529.065930994925	0.0999672739371817	stim08_sf2_pattern1_cont1_shape1.png	2	1	1	1	1	2	0	0	0	0	0	0	0	0	0	0	0	0	1	3
363.28515625	0.0999710861124186	744008	376	4	stim04_sf1_pattern2_cont1_shape1.png	2	44	0	529.465971638584	529.565942724696	0.0999710861124186	stim04_sf1_pattern2_cont1_shape1.png	1	2	1	1	1	1	0	0	0	0	0	0	0	0	0	0	0	0	1	3
363.78515625	0.0999710861124186	745032	377	15	stim15_sf2_pattern2_cont2_shape2.png	2	45	0	529.965956096637	530.065927182749	0.0999710861124186	stim15_sf2_pattern2_cont2_shape2.png	2	2	2	2	1	4	0	0	0	0	0	0	0	0	0	0	0	0	1	3
364.28515625	0.0999907334798991	746056	378	0	stim00_sf1_pattern1_cont1_shape1.png	2	46	0	530.465934396559	530.565925130039	0.0999907334798991	stim00_sf1_pattern1_cont1_shape1.png	1	1	1	1	1	1	0	0	0	0	0	0	0	0	0	0	0	0	1	3
364.78515625	0.100033547147177	747080	379	3	stim03_sf1_pattern1_cont2_shape2.png	2	47	0	530.965888650449	531.065922197596	0.100033547147177	stim03_sf1_pattern1_cont2_shape2.png	1	1	2	2	1	3	0	0	0	0	0	0	0	0	0	0	0	0	1	3
365.28515625	0.0999971848550558	748104	380	1	stim01_sf1_pattern1_cont1_shape2.png	2	48	0	531.465928238428	531.565925423283	0.0999971848550558	stim01_sf1_pattern1_cont1_shape2.png	1	1	1	2	1	1	0	0	0	0	0	0	0	0	0	0	0	0	1	3
365.78515625	0.0999869213037528	749128	381	7	stim07_sf1_pattern2_cont2_shape2.png	2	49	0	531.965925012742	532.065911934045	0.0999869213037528	stim07_sf1_pattern2_cont2_shape2.png	1	2	2	2	1	3	0	0	0	0	0	0	0	0	0	0	0	0	1	3
366.28515625	0.0999804699295055	750152	382	14	stim14_sf2_pattern2_cont2_shape1.png	2	50	0	532.465908591061	532.56588906099	0.0999804699295055	stim14_sf2_pattern2_cont2_shape1.png	2	2	2	1	1	4	0	0	0	0	0	0	0	0	0	0	0	0	1	3
366.78515625	0.0999883875256273	751176	383	5	stim05_sf1_pattern2_cont1_shape2.png	2	51	0	532.965887477471	533.065875864997	0.0999883875256273	stim05_sf1_pattern2_cont1_shape2.png	1	2	1	2	1	1	0	0	0	0	0	0	0	0	0	0	0	0	1	3
367.28515625	0.0999596495848891	752200	384	1	stim01_sf1_pattern1_cont1_shape2.png	2	52	0	533.465881319341	533.565840968926	0.0999596495848891	stim01_sf1_pattern1_cont1_shape2.png	1	1	1	2	1	1	0	0	0	0	0	0	0	0	0	0	0	0	1	3
367.78515625	0.0999939591674774	753224	385	0	stim00_sf1_pattern1_cont1_shape1.png	2	53	0	533.965862551706	534.065856510873	0.0999939591674774	stim00_sf1_pattern1_cont1_shape1.png	1	1	1	1	1	1	0	0	0	0	0	0	0	0	0	0	0	0	1	3
368.28515625	0.0999807631742442	754248	386	13	stim13_sf2_pattern2_cont1_shape2.png	2	54	0	534.46585668682	534.565837449994	0.0999807631742442	stim13_sf2_pattern2_cont1_shape2.png	2	2	1	2	1	2	0	0	0	0	0	0	0	0	0	0	0	0	1	3
368.78515625	0.0999869213046622	755272	387	11	stim11_sf2_pattern1_cont2_shape2.png	2	55	0	534.965837919185	535.06582484049	0.0999869213046622	stim11_sf2_pattern1_cont2_shape2.png	2	1	2	2	1	4	0	0	0	0	0	0	0	0	0	0	0	0	1	3
369.28515625	0.0999684469134081	756296	388	7	stim07_sf1_pattern2_cont2_shape2.png	2	56	0	535.465837625941	535.565806072855	0.0999684469134081	stim07_sf1_pattern2_cont2_shape2.png	1	2	2	2	1	3	0	0	0	0	0	0	0	0	0	0	0	0	1	3
369.78515625	0.0999989443207596	757320	389	9	stim09_sf2_pattern1_cont1_shape2.png	2	57	0	535.965811527199	536.065810471519	0.0999989443207596	stim09_sf2_pattern1_cont1_shape2.png	2	1	1	2	1	2	0	0	0	0	0	0	0	0	0	0	0	0	1	3
370.28515625	0.0999948389007841	758344	390	5	stim05_sf1_pattern2_cont1_shape2.png	2	58	0	536.465803316358	536.565798155259	0.0999948389007841	stim05_sf1_pattern2_cont1_shape2.png	1	2	1	2	1	1	0	0	0	0	0	0	0	0	0	0	0	0	1	3
370.78515625	0.0999965983664879	759368	391	12	stim12_sf2_pattern2_cont1_shape1.png	2	59	0	536.965787187922	537.065783786288	0.0999965983664879	stim12_sf2_pattern2_cont1_shape1.png	2	2	1	1	1	2	0	0	0	0	0	0	0	0	0	0	0	0	1	3
371.28515625	0.0999939591674774	760392	392	8	stim08_sf2_pattern1_cont1_shape1.png	2	60	0	537.465776631127	537.565770590295	0.0999939591674774	stim08_sf2_pattern1_cont1_shape1.png	2	1	1	1	1	2	0	0	0	0	0	0	0	0	0	0	0	0	1	3
371.78515625	0.0999901469922406	761416	393	4	stim04_sf1_pattern2_cont1_shape1.png	2	61	0	537.965769006775	538.065759153767	0.0999901469922406	stim04_sf1_pattern2_cont1_shape1.png	1	2	1	1	1	1	0	0	0	0	0	0	0	0	0	0	0	0	1	3
372.28515625	0.0999693266467148	762440	394	3	stim03_sf1_pattern1_cont2_shape2.png	2	62	0	538.465756104027	538.565725430673	0.0999693266467148	stim03_sf1_pattern1_cont2_shape2.png	1	1	2	2	1	3	0	0	0	0	0	0	0	0	0	0	0	0	1	3
372.78515625	0.0999875077923207	763464	395	2	stim02_sf1_pattern1_cont2_shape1.png	2	63	0	538.965748186431	539.065735694223	0.0999875077923207	stim02_sf1_pattern1_cont2_shape1.png	1	1	2	1	1	3	0	0	0	0	0	0	0	0	0	0	0	0	1	3
373.28515625	0.0999927861903416	764488	396	6	stim06_sf1_pattern2_cont2_shape1.png	2	64	0	539.465730591773	539.565723377963	0.0999927861903416	stim06_sf1_pattern2_cont2_shape1.png	1	2	2	1	1	3	0	0	0	0	0	0	0	0	0	0	0	0	1	3
373.78515625	0.099988680770366	765512	397	10	stim10_sf2_pattern1_cont2_shape1.png	2	65	0	539.965719741734	540.065708422504	0.099988680770366	stim10_sf2_pattern1_cont2_shape1.png	2	1	2	1	1	4	0	0	0	0	0	0	0	0	0	0	0	0	1	3
374.28515625	0.0999951321446133	766536	398	15	stim15_sf2_pattern2_cont2_shape2.png	2	66	0	540.465681033486	540.565676165631	0.0999951321446133	stim15_sf2_pattern2_cont2_shape2.png	2	2	2	2	1	4	0	0	0	0	0	0	0	0	0	0	0	0	1	3
374.78515625	0.0999751915323941	767560	399	14	stim14_sf2_pattern2_cont2_shape1.png	2	67	0	540.965696575434	541.065671766966	0.0999751915323941	stim14_sf2_pattern2_cont2_shape1.png	2	2	2	1	1	4	0	0	0	0	0	0	0	0	0	0	0	0	1	3
375.28515625	0.0999886807694566	768584	400	4	stim04_sf1_pattern2_cont1_shape1.png	2	68	0	541.465658453676	541.565647134445	0.0999886807694566	stim04_sf1_pattern2_cont1_shape1.png	1	2	1	1	1	1	0	0	0	0	0	0	0	0	0	0	0	0	1	3
375.78515625	0.100016245733968	769608	401	11	stim11_sf2_pattern1_cont2_shape2.png	2	69	0	541.965652588789	542.065668834523	0.100016245733968	stim11_sf2_pattern1_cont2_shape2.png	2	1	2	2	1	4	0	0	0	0	0	0	0	0	0	0	0	0	1	3
376.28515625	0.0999895605027632	770632	402	12	stim12_sf2_pattern2_cont1_shape1.png	2	70	0	542.46563616711	542.565625727612	0.0999895605027632	stim12_sf2_pattern2_cont1_shape1.png	2	2	1	1	1	2	0	0	0	0	0	0	0	0	0	0	0	0	1	3
376.78466796875	0.0999963051217492	771655	403	2	stim02_sf1_pattern1_cont2_shape1.png	2	71	0	542.965622384627	543.065618689749	0.0999963051217492	stim02_sf1_pattern1_cont2_shape1.png	1	1	2	1	1	3	0	0	0	0	0	0	0	0	0	0	0	0	1	3
377.28466796875	0.099973725311429	772679	404	15	stim15_sf2_pattern2_cont2_shape2.png	2	72	0	543.465626196803	543.565599922114	0.099973725311429	stim15_sf2_pattern2_cont2_shape2.png	2	2	2	2	1	4	0	0	0	0	0	0	0	0	0	0	0	0	1	3
377.78466796875	0.0999658077143977	773703	405	0	stim00_sf1_pattern1_cont1_shape1.png	2	73	0	543.965605962947	544.065571770661	0.0999658077143977	stim00_sf1_pattern1_cont1_shape1.png	1	1	1	1	1	1	0	0	0	0	0	0	0	0	0	0	0	0	1	3
378.28466796875	0.0999957186331812	774727	406	9	stim09_sf2_pattern1_cont1_shape2.png	2	74	0	544.465588368289	544.565584086922	0.0999957186331812	stim09_sf2_pattern1_cont1_shape2.png	2	1	1	2	1	2	0	0	0	0	0	0	0	0	0	0	0	0	1	3
378.78466796875	0.0999766577542687	775751	407	14	stim14_sf2_pattern2_cont2_shape1.png	2	75	0	544.965601271037	545.065577928792	0.0999766577542687	stim14_sf2_pattern2_cont2_shape1.png	2	2	2	1	1	4	0	0	0	0	0	0	0	0	0	0	0	0	1	3
379.28466796875	0.100003929473132	776775	408	8	stim08_sf2_pattern1_cont1_shape1.png	2	76	0	545.465568427677	545.56557235715	0.100003929473132	stim08_sf2_pattern1_cont1_shape1.png	2	1	1	1	1	2	0	0	0	0	0	0	0	0	0	0	0	0	1	3
379.78466796875	0.100009501114982	777799	409	6	stim06_sf1_pattern2_cont2_shape1.png	2	77	0	545.965552005996	546.065561507111	0.100009501114982	stim06_sf1_pattern2_cont2_shape1.png	1	2	2	1	1	3	0	0	0	0	0	0	0	0	0	0	0	0	1	3
380.28466796875	0.0999798834418471	778823	410	5	stim05_sf1_pattern2_cont1_shape2.png	2	78	0	546.465557284393	546.565537167835	0.0999798834418471	stim05_sf1_pattern2_cont1_shape2.png	1	2	1	2	1	1	0	0	0	0	0	0	0	0	0	0	0	0	1	3
380.78466796875	0.100001290275031	779847	411	3	stim03_sf1_pattern1_cont2_shape2.png	2	79	0	546.965541742446	547.065543032721	0.100001290275031	stim03_sf1_pattern1_cont2_shape2.png	1	1	2	2	1	3	0	0	0	0	0	0	0	0	0	0	0	0	1	3
381.28466796875	0.0999951321446133	780871	412	1	stim01_sf1_pattern1_cont1_shape2.png	2	80	0	547.465544674888	547.565539807033	0.0999951321446133	stim01_sf1_pattern1_cont1_shape2.png	1	1	1	2	1	1	0	0	0	0	0	0	0	0	0	0	0	0	1	3
381.78466796875	0.0999957186331812	781895	413	10	stim10_sf2_pattern1_cont2_shape1.png	2	81	0	547.965525320765	548.065521039398	0.0999957186331812	stim10_sf2_pattern1_cont2_shape1.png	2	1	2	1	1	4	0	0	0	0	0	0	0	0	0	0	0	0	1	3
382.28466796875	0.0999883875256273	782919	414	7	stim07_sf1_pattern2_cont2_shape2.png	2	82	0	548.465518282902	548.565506670428	0.0999883875256273	stim07_sf1_pattern2_cont2_shape2.png	1	2	2	2	1	3	0	0	0	0	0	0	0	0	0	0	0	0	1	3
382.78466796875	0.099997478098885	783943	415	13	stim13_sf2_pattern2_cont1_shape2.png	2	83	0	548.965497755801	549.0654952339	0.099997478098885	stim13_sf2_pattern2_cont1_shape2.png	2	2	1	2	1	2	0	0	0	0	0	0	0	0	0	0	0	0	1	3
383.28466796875	0.0999948388998746	784967	416	8	stim08_sf2_pattern1_cont1_shape1.png	2	84	0	549.46549013145	549.56548497035	0.0999948388998746	stim08_sf2_pattern1_cont1_shape1.png	2	1	1	1	1	2	0	0	0	0	0	0	0	0	0	0	0	0	1	3
383.78466796875	0.099997478098885	785991	417	3	stim03_sf1_pattern1_cont2_shape2.png	2	85	0	549.965476055723	550.065473533822	0.099997478098885	stim03_sf1_pattern1_cont2_shape2.png	1	1	2	2	1	3	0	0	0	0	0	0	0	0	0	0	0	0	1	3
384.28466796875	0.099998064587453	787015	418	6	stim06_sf1_pattern2_cont2_shape1.png	2	86	0	550.465465205684	550.565463270272	0.099998064587453	stim06_sf1_pattern2_cont2_shape1.png	1	2	2	1	1	3	0	0	0	0	0	0	0	0	0	0	0	0	1	3
384.78466796875	0.0999992375645888	788039	419	0	stim00_sf1_pattern1_cont1_shape1.png	2	87	0	550.965449663737	551.065448901301	0.0999992375645888	stim00_sf1_pattern1_cont1_shape1.png	1	1	1	1	1	1	0	0	0	0	0	0	0	0	0	0	0	0	1	3
385.28466796875	0.100006275427404	789063	420	4	stim04_sf1_pattern2_cont1_shape1.png	2	88	0	551.465430896102	551.565437171529	0.100006275427404	stim04_sf1_pattern2_cont1_shape1.png	1	2	1	1	1	1	0	0	0	0	0	0	0	0	0	0	0	0	1	3
385.78466796875	0.100004222717871	790087	421	15	stim15_sf2_pattern2_cont2_shape2.png	2	89	0	551.965428550147	552.065432772865	0.100004222717871	stim15_sf2_pattern2_cont2_shape2.png	2	2	2	2	1	4	0	0	0	0	0	0	0	0	0	0	0	0	1	3
386.28466796875	0.100000117297895	791111	422	1	stim01_sf1_pattern1_cont1_shape2.png	2	90	0	552.465417406864	552.565417524162	0.100000117297895	stim01_sf1_pattern1_cont1_shape2.png	1	1	1	2	1	1	0	0	0	0	0	0	0	0	0	0	0	0	1	3
386.78466796875	0.0999954253884425	792135	423	14	stim14_sf2_pattern2_cont2_shape1.png	2	91	0	552.965405090604	553.065400515992	0.0999954253884425	stim14_sf2_pattern2_cont2_shape1.png	2	2	2	1	1	4	0	0	0	0	0	0	0	0	0	0	0	0	1	3
387.28466796875	0.0999960118770105	793159	424	2	stim02_sf1_pattern1_cont2_shape1.png	2	92	0	553.465392481099	553.565388492976	0.0999960118770105	stim02_sf1_pattern1_cont2_shape1.png	1	1	2	1	1	3	0	0	0	0	0	0	0	0	0	0	0	0	1	3
387.78466796875	0.0999921997017736	794183	425	7	stim07_sf1_pattern2_cont2_shape2.png	2	93	0	553.965384563503	554.065376763205	0.0999921997017736	stim07_sf1_pattern2_cont2_shape2.png	1	2	2	2	1	3	0	0	0	0	0	0	0	0	0	0	0	0	1	3
388.28466796875	0.0999907334798991	795207	426	12	stim12_sf2_pattern2_cont1_shape1.png	2	94	0	554.465374299953	554.565365033432	0.0999907334798991	stim12_sf2_pattern2_cont1_shape1.png	2	2	1	1	1	2	0	0	0	0	0	0	0	0	0	0	0	0	1	3
388.78466796875	0.0999948389007841	796231	427	9	stim09_sf2_pattern1_cont1_shape2.png	2	95	0	554.965359930981	555.065354769882	0.0999948389007841	stim09_sf2_pattern1_cont1_shape2.png	2	1	1	2	1	2	0	0	0	0	0	0	0	0	0	0	0	0	1	3
389.28466796875	0.100001876763599	797255	428	11	stim11_sf2_pattern1_cont2_shape2.png	2	96	0	555.465343802545	555.565345679309	0.100001876763599	stim11_sf2_pattern1_cont2_shape2.png	2	1	2	2	1	4	0	0	0	0	0	0	0	0	0	0	0	0	1	3
389.78466796875	0.0999505590116314	798279	429	5	stim05_sf1_pattern2_cont1_shape2.png	2	97	0	555.965335298461	556.065285857472	0.0999505590116314	stim05_sf1_pattern2_cont1_shape2.png	1	2	1	2	1	1	0	0	0	0	0	0	0	0	0	0	0	0	1	3
390.28466796875	0.10000451596261	799303	430	13	stim13_sf2_pattern2_cont1_shape2.png	2	98	0	556.465296590213	556.565301106176	0.10000451596261	stim13_sf2_pattern2_cont1_shape2.png	2	2	1	2	1	2	0	0	0	0	0	0	0	0	0	0	0	0	1	3
390.78466796875	0.0999963051217492	800327	431	10	stim10_sf2_pattern1_cont2_shape1.png	2	99	0	556.965276649602	557.065272954724	0.0999963051217492	stim10_sf2_pattern1_cont2_shape1.png	2	1	2	1	1	4	0	0	0	0	0	0	0	0	0	0	0	0	1	3
391.28466796875	0.0999986510760209	801351	432	6	stim06_sf1_pattern2_cont2_shape1.png	2	100	0	557.465237061621	557.565235712697	0.0999986510760209	stim06_sf1_pattern2_cont2_shape1.png	1	2	2	1	1	3	0	0	0	0	0	0	0	0	0	0	0	0	1	3
391.78466796875	0.0999995308093276	802375	433	5	stim05_sf1_pattern2_cont1_shape2.png	2	101	0	557.965238527843	558.065238058653	0.0999995308093276	stim05_sf1_pattern2_cont1_shape2.png	1	2	1	2	1	1	0	0	0	0	0	0	0	0	0	0	0	0	1	3
392.28466796875	0.10000744840454	803399	434	10	stim10_sf2_pattern1_cont2_shape1.png	2	102	1	558.465227677804	558.565235126209	0.10000744840454	stim10_sf2_pattern1_cont2_shape1.png	2	1	2	1	1	4	0	0	0	0	0	0	0	0	0	0	0	0	1	3
392.78466796875	0.0999769509980979	804423	435	10	stim10_sf2_pattern1_cont2_shape1.png	2	103	1	558.96522738456	559.065204335558	0.0999769509980979	stim10_sf2_pattern1_cont2_shape1.png	2	1	2	1	1	4	0	0	0	0	0	0	0	0	0	0	0	0	1	3
393.28466796875	0.09999601187792	805447	436	15	stim15_sf2_pattern2_cont2_shape2.png	2	104	2	559.465203338527	559.565199350405	0.09999601187792	stim15_sf2_pattern2_cont2_shape2.png	2	2	2	2	1	4	0	0	0	0	0	0	0	0	0	0	0	0	1	3
393.78466796875	0.100001290275031	806471	437	0	stim00_sf1_pattern1_cont1_shape1.png	2	105	2	559.965218880475	560.06522017075	0.100001290275031	stim00_sf1_pattern1_cont1_shape1.png	1	1	1	1	1	1	0	0	0	0	0	0	0	0	0	0	0	0	1	3
394.2841796875	0.0999954253884425	807494	438	10	stim10_sf2_pattern1_cont2_shape1.png	2	106	0	560.465171081655	560.565166507044	0.0999954253884425	stim10_sf2_pattern1_cont2_shape1.png	2	1	2	1	1	4	0	0	0	0	0	0	0	0	0	0	0	0	1	3
394.7841796875	0.099997478098885	808518	439	2	stim02_sf1_pattern1_cont2_shape1.png	2	107	0	560.96519600742	561.065193485519	0.099997478098885	stim02_sf1_pattern1_cont2_shape1.png	1	1	2	1	1	3	0	0	0	0	0	0	0	0	0	0	0	0	1	3
395.2841796875	0.100004222717871	809542	440	9	stim09_sf2_pattern1_cont1_shape2.png	2	108	0	561.465188383068	561.565192605786	0.100004222717871	stim09_sf2_pattern1_cont1_shape2.png	2	1	1	2	1	2	0	0	0	0	0	0	0	0	0	0	0	0	1	3
395.7841796875	0.100022403864386	810566	441	15	stim15_sf2_pattern2_cont2_shape2.png	2	109	0	561.965173720853	562.065196124718	0.100022403864386	stim15_sf2_pattern2_cont2_shape2.png	2	2	2	2	1	4	0	0	0	0	0	0	0	0	0	0	0	0	1	3
396.2841796875	0.0999860415713556	811590	442	3	stim03_sf1_pattern1_cont2_shape2.png	2	110	0	562.465190729023	562.565176770594	0.0999860415713556	stim03_sf1_pattern1_cont2_shape2.png	1	1	2	2	1	3	0	0	0	0	0	0	0	0	0	0	0	0	1	3
396.7841796875	0.0999951321446133	812614	443	0	stim00_sf1_pattern1_cont1_shape1.png	2	111	0	562.965166389746	563.06516152189	0.0999951321446133	stim00_sf1_pattern1_cont1_shape1.png	1	1	1	1	1	1	0	0	0	0	0	0	0	0	0	0	0	0	1	3
397.2841796875	0.10000451596261	813638	444	1	stim01_sf1_pattern1_cont1_shape2.png	2	112	0	563.465153193752	563.565157709715	0.10000451596261	stim01_sf1_pattern1_cont1_shape2.png	1	1	1	2	1	1	0	0	0	0	0	0	0	0	0	0	0	0	1	3
397.7841796875	0.100003636229303	814662	445	8	stim08_sf2_pattern1_cont1_shape1.png	2	113	0	563.965143516691	564.06514715292	0.100003636229303	stim08_sf2_pattern1_cont1_shape1.png	2	1	1	1	1	2	0	0	0	0	0	0	0	0	0	0	0	0	1	3
398.2841796875	0.0999461603469172	815686	446	14	stim14_sf2_pattern2_cont2_shape1.png	2	114	0	564.465130320697	564.565076481044	0.0999461603469172	stim14_sf2_pattern2_cont2_shape1.png	2	2	2	1	1	4	0	0	0	0	0	0	0	0	0	0	0	0	1	3
398.7841796875	0.099997478098885	816710	447	4	stim04_sf1_pattern2_cont1_shape1.png	2	115	0	564.965117711193	565.065115189292	0.099997478098885	stim04_sf1_pattern2_cont1_shape1.png	1	2	1	1	1	1	0	0	0	0	0	0	0	0	0	0	0	0	1	3
399.2841796875	0.0999963051217492	817734	448	7	stim07_sf1_pattern2_cont2_shape2.png	2	116	0	565.465105688177	565.565101993298	0.0999963051217492	stim07_sf1_pattern2_cont2_shape2.png	1	2	2	2	1	3	0	0	0	0	0	0	0	0	0	0	0	0	1	3
399.7841796875	0.0999974780997945	818758	449	12	stim12_sf2_pattern2_cont1_shape1.png	2	117	0	565.965093958404	566.065091436504	0.0999974780997945	stim12_sf2_pattern2_cont1_shape1.png	2	2	1	1	1	2	0	0	0	0	0	0	0	0	0	0	0	0	1	3
400.2841796875	0.0999995308093276	819782	450	11	stim11_sf2_pattern1_cont2_shape2.png	2	118	0	566.465081642144	566.565081172954	0.0999995308093276	stim11_sf2_pattern1_cont2_shape2.png	2	1	2	2	1	4	0	0	0	0	0	0	0	0	0	0	0	0	1	3
400.7841796875	0.0999968916103171	820806	451	13	stim13_sf2_pattern2_cont1_shape2.png	2	119	0	566.965069912372	567.065066803983	0.0999968916103171	stim13_sf2_pattern2_cont1_shape2.png	2	2	1	2	1	2	0	0	0	0	0	0	0	0	0	0	0	0	1	3
