onset	duration	onsetsample	eventnumber	stimnumber	stimname	blocknumber	trialnumber	istarget	time_stimon	time_stimoff	stimdur	stimfilename	spatial_freq	pattern	contrast	shape	is_fast_stream	category	ppt_1_response	ppt_1_keypressed	ppt_1_rt	ppt_1_correct	ppt_2_response	ppt_2_keypressed	ppt_2_rt	ppt_2_correct	button1	button2	button3	button4	task_part_number	subjectnr
92.69091796875	0.0999963051217492	189831	0	1	stim01_sf1_pattern1_cont1_shape2.png	0	0	0	192.462946530421	192.562942835542	0.0999963051217492	stim01_sf1_pattern1_cont1_shape2.png	1	1	1	2	1	3	0	0	0	0	0	0	0	0	0	0	0	0	1	4
93.19970703125	0.10001302004639	190873	1	12	stim12_sf2_pattern2_cont1_shape1.png	0	1	0	192.971262645427	193.071275665474	0.10001302004639	stim12_sf2_pattern2_cont1_shape1.png	2	2	1	1	1	2	0	0	0	0	0	0	0	0	0	0	0	0	1	4
93.69970703125	0.106001068583282	191897	2	7	stim07_sf1_pattern2_cont2_shape2.png	0	2	0	193.490266342063	193.596267410647	0.106001068583282	stim07_sf1_pattern2_cont2_shape2.png	1	2	2	2	1	4	0	0	0	0	0	0	0	0	0	0	0	0	1	4
94.224609375	0.100016832222536	192972	3	0	stim00_sf1_pattern1_cont1_shape1.png	0	3	0	193.996236795942	194.096253628164	0.100016832222536	stim00_sf1_pattern1_cont1_shape1.png	1	1	1	1	1	1	0	0	0	0	0	0	0	0	0	0	0	0	1	4
94.724609375	0.100037359323323	193996	4	3	stim03_sf1_pattern1_cont2_shape2.png	0	4	0	194.496210403955	194.596247763278	0.100037359323323	stim03_sf1_pattern1_cont2_shape2.png	1	1	2	2	1	3	0	0	0	0	0	0	0	0	0	0	0	0	1	4
95.224609375	0.0999886807694566	195020	5	15	stim15_sf2_pattern2_cont2_shape2.png	0	5	0	194.996223013461	195.09621169423	0.0999886807694566	stim15_sf2_pattern2_cont2_shape2.png	2	2	2	2	1	4	0	0	0	0	0	0	0	0	0	0	0	0	1	4
95.724609375	0.100011847069254	196044	6	14	stim14_sf2_pattern2_cont2_shape1.png	0	6	0	195.49618547819	195.59619732526	0.100011847069254	stim14_sf2_pattern2_cont2_shape1.png	2	2	2	1	1	2	0	0	0	0	0	0	0	0	0	0	0	0	1	4
96.224609375	0.0999640482477844	197068	7	6	stim06_sf1_pattern2_cont2_shape1.png	0	7	0	195.996218321552	196.0961823698	0.0999640482477844	stim06_sf1_pattern2_cont2_shape1.png	1	2	2	1	1	2	0	0	0	0	0	0	0	0	0	0	0	0	1	4
96.724609375	0.100019471421547	198092	8	11	stim11_sf2_pattern1_cont2_shape2.png	0	8	0	196.496151168607	196.596170640029	0.100019471421547	stim11_sf2_pattern1_cont2_shape2.png	2	1	2	2	1	3	0	0	0	0	0	0	0	0	0	0	0	0	1	4
97.22412109375	0.100006275426495	199115	9	13	stim13_sf2_pattern2_cont1_shape2.png	0	9	0	196.996143544256	197.096149819683	0.100006275426495	stim13_sf2_pattern2_cont1_shape2.png	2	2	1	2	1	4	0	0	0	0	0	0	0	0	0	0	0	0	1	4
97.72412109375	0.0999986510760209	200139	10	8	stim08_sf2_pattern1_cont1_shape1.png	0	10	0	197.496149409142	197.596148060218	0.0999986510760209	stim08_sf2_pattern1_cont1_shape1.png	2	1	1	1	1	1	0	0	0	0	0	0	0	0	0	0	0	0	1	4
98.22412109375	0.0999901469913311	201163	11	2	stim02_sf1_pattern1_cont2_shape1.png	0	11	0	197.99613973208	198.096129879072	0.0999901469913311	stim02_sf1_pattern1_cont2_shape1.png	1	1	2	1	1	1	0	0	0	0	0	0	0	0	0	0	0	0	1	4
98.72412109375	0.0999875077923207	202187	12	5	stim05_sf1_pattern2_cont1_shape2.png	0	12	0	198.496134453682	198.596121961475	0.0999875077923207	stim05_sf1_pattern2_cont1_shape2.png	1	2	1	2	1	4	0	0	0	0	0	0	0	0	0	0	0	0	1	4
99.22412109375	0.0999998240549758	203211	13	9	stim09_sf2_pattern1_cont1_shape2.png	0	13	0	198.996117152268	199.096116976323	0.0999998240549758	stim09_sf2_pattern1_cont1_shape2.png	2	1	1	2	1	3	0	0	0	0	0	0	0	0	0	0	0	0	1	4
99.72412109375	0.100019764664466	204235	14	10	stim10_sf2_pattern1_cont2_shape1.png	0	14	0	199.496102490055	199.596122254719	0.100019764664466	stim10_sf2_pattern1_cont2_shape1.png	2	1	2	1	1	1	0	0	0	0	0	0	0	0	0	0	0	0	1	4
100.22412109375	0.0999960118788294	205259	15	4	stim04_sf1_pattern2_cont1_shape1.png	0	15	0	199.996117152268	200.096113164147	0.0999960118788294	stim04_sf1_pattern2_cont1_shape1.png	1	2	1	1	1	2	0	0	0	0	0	0	0	0	0	0	0	0	1	4
100.72412109375	0.0999945456569549	206283	16	9	stim09_sf2_pattern1_cont1_shape2.png	0	16	0	200.496098384634	200.596092930291	0.0999945456569549	stim09_sf2_pattern1_cont1_shape2.png	2	1	1	2	1	3	0	0	0	0	0	0	0	0	0	0	0	0	1	4
101.22412109375	0.099997478098885	207307	17	15	stim15_sf2_pattern2_cont2_shape2.png	0	17	0	200.996082256197	201.096079734296	0.099997478098885	stim15_sf2_pattern2_cont2_shape2.png	2	2	2	2	1	4	0	0	0	0	0	0	0	0	0	0	0	0	1	4
101.72412109375	0.0999746050438262	208331	18	13	stim13_sf2_pattern2_cont1_shape2.png	0	18	0	201.496076391311	201.596050996355	0.0999746050438262	stim13_sf2_pattern2_cont1_shape2.png	2	2	1	2	1	4	0	0	0	0	0	0	0	0	0	0	0	0	1	4
102.22412109375	0.100043517453742	209355	19	5	stim05_sf1_pattern2_cont1_shape2.png	0	19	0	201.995970236876	202.09601375433	0.100043517453742	stim05_sf1_pattern2_cont1_shape2.png	1	2	1	2	1	4	0	0	0	0	0	0	0	0	0	0	0	0	1	4
102.72412109375	0.0999948389016936	210379	20	6	stim06_sf1_pattern2_cont2_shape1.png	0	20	0	202.496047360126	202.596042199028	0.0999948389016936	stim06_sf1_pattern2_cont2_shape1.png	1	2	2	1	1	2	0	0	0	0	0	0	0	0	0	0	0	0	1	4
103.22412109375	0.100012726801651	211403	21	10	stim10_sf2_pattern1_cont2_shape1.png	0	21	0	202.996016569476	203.096029296277	0.100012726801651	stim10_sf2_pattern1_cont2_shape1.png	2	1	2	1	1	1	0	0	0	0	0	0	0	0	0	0	0	0	1	4
103.72412109375	0.0999927861903416	212427	22	4	stim04_sf1_pattern2_cont1_shape1.png	0	22	0	203.496023607338	203.596016393529	0.0999927861903416	stim04_sf1_pattern2_cont1_shape1.png	1	2	1	1	1	2	0	0	0	0	0	0	0	0	0	0	0	0	1	4
104.22412109375	0.100015952490139	213451	23	14	stim14_sf2_pattern2_cont2_shape1.png	0	23	0	203.995989591	204.09600554349	0.100015952490139	stim14_sf2_pattern2_cont2_shape1.png	2	2	2	1	1	2	0	0	0	0	0	0	0	0	0	0	0	0	1	4
104.72412109375	0.0999754847780423	214475	24	11	stim11_sf2_pattern1_cont2_shape2.png	0	24	0	204.49599780184	204.595973286618	0.0999754847780423	stim11_sf2_pattern1_cont2_shape2.png	2	1	2	2	1	3	0	0	0	0	0	0	0	0	0	0	0	0	1	4
105.22412109375	0.100005688938836	215499	25	0	stim00_sf1_pattern1_cont1_shape1.png	0	25	0	204.995974635542	205.09598032448	0.100005688938836	stim00_sf1_pattern1_cont1_shape1.png	1	1	1	1	1	1	0	0	0	0	0	0	0	0	0	0	0	0	1	4
105.72412109375	0.0999921997008641	216523	26	1	stim01_sf1_pattern1_cont1_shape2.png	0	26	0	205.495974342297	205.595966541998	0.0999921997008641	stim01_sf1_pattern1_cont1_shape2.png	1	1	1	2	1	3	0	0	0	0	0	0	0	0	0	0	0	0	1	4
106.22412109375	0.0999854550827877	217547	27	2	stim02_sf1_pattern1_cont2_shape1.png	0	27	0	205.995959680082	206.095945135165	0.0999854550827877	stim02_sf1_pattern1_cont2_shape1.png	1	1	2	1	1	1	0	0	0	0	0	0	0	0	0	0	0	0	1	4
106.72412109375	0.0999713793571573	218571	28	8	stim08_sf2_pattern1_cont1_shape1.png	0	28	1	206.495934461072	206.59590584043	0.0999713793571573	stim08_sf2_pattern1_cont1_shape1.png	2	1	1	1	1	1	0	0	0	0	0	0	0	0	0	0	0	0	1	4
107.22412109375	0.100008621382585	219595	29	8	stim08_sf2_pattern1_cont1_shape1.png	0	29	1	206.995920971834	207.095929593217	0.100008621382585	stim08_sf2_pattern1_cont1_shape1.png	2	1	1	1	1	1	0	0	0	0	0	0	0	0	0	0	0	0	1	4
107.72412109375	0.0999722590895544	220619	30	11	stim11_sf2_pattern1_cont2_shape2.png	0	30	2	207.495927716453	207.595899975542	0.0999722590895544	stim11_sf2_pattern1_cont2_shape2.png	2	1	2	2	1	3	0	0	0	0	0	0	0	0	0	0	0	0	1	4
108.22412109375	0.0999848685951292	221643	31	9	stim09_sf2_pattern1_cont1_shape2.png	0	31	2	207.995911001528	208.095895870123	0.0999848685951292	stim09_sf2_pattern1_cont1_shape2.png	2	1	1	2	1	3	0	0	0	0	0	0	0	0	0	0	0	0	1	4
108.72412109375	0.0999895605036727	222667	32	8	stim08_sf2_pattern1_cont1_shape1.png	0	32	0	208.495904843398	208.595894403901	0.0999895605036727	stim08_sf2_pattern1_cont1_shape1.png	2	1	1	1	1	1	0	0	0	0	0	0	0	0	0	0	0	0	1	4
109.22412109375	0.100001583517951	223691	33	3	stim03_sf1_pattern1_cont2_shape2.png	0	33	0	208.995868187862	209.09586977138	0.100001583517951	stim03_sf1_pattern1_cont2_shape2.png	1	1	2	2	1	3	0	0	0	0	0	0	0	0	0	0	0	0	1	4
109.72412109375	0.100014779513003	224715	34	7	stim07_sf1_pattern2_cont2_shape2.png	0	34	0	209.495859097287	209.5958738768	0.100014779513003	stim07_sf1_pattern2_cont2_shape2.png	1	2	2	2	1	4	0	0	0	0	0	0	0	0	0	0	0	0	1	4
110.22412109375	0.100012726801651	225739	35	12	stim12_sf2_pattern2_cont1_shape1.png	0	35	0	209.995835637745	210.095848364546	0.100012726801651	stim12_sf2_pattern2_cont1_shape1.png	2	2	1	1	1	2	0	0	0	0	0	0	0	0	0	0	0	0	1	4
110.72412109375	0.0999558374096523	226763	36	2	stim02_sf1_pattern1_cont2_shape1.png	0	36	0	210.495858217555	210.595814054965	0.0999558374096523	stim02_sf1_pattern1_cont2_shape1.png	1	1	2	1	1	1	0	0	0	0	0	0	0	0	0	0	0	0	1	4
111.22412109375	0.0999529049659031	227787	37	0	stim00_sf1_pattern1_cont1_shape1.png	0	37	0	210.995836810722	211.095789715688	0.0999529049659031	stim00_sf1_pattern1_cont1_shape1.png	1	1	1	1	1	1	0	0	0	0	0	0	0	0	0	0	0	0	1	4
111.72412109375	0.0999977713418048	228811	38	14	stim14_sf2_pattern2_cont2_shape1.png	0	38	0	211.495816576866	211.595814348208	0.0999977713418048	stim14_sf2_pattern2_cont2_shape1.png	2	2	2	1	1	2	0	0	0	0	0	0	0	0	0	0	0	0	1	4
112.22412109375	0.100021230886341	229835	39	11	stim11_sf2_pattern1_cont2_shape2.png	0	39	0	211.995767018579	212.095788249466	0.100021230886341	stim11_sf2_pattern1_cont2_shape2.png	2	1	2	2	1	3	0	0	0	0	0	0	0	0	0	0	0	0	1	4
112.72412109375	0.0999965983664879	230859	40	8	stim08_sf2_pattern1_cont1_shape1.png	0	40	0	212.495779628083	212.59577622645	0.0999965983664879	stim08_sf2_pattern1_cont1_shape1.png	2	1	1	1	1	1	0	0	0	0	0	0	0	0	0	0	0	0	1	4
113.22412109375	0.100032960659519	231883	41	7	stim07_sf1_pattern2_cont2_shape2.png	0	41	0	212.995733002241	213.0957659629	0.100032960659519	stim07_sf1_pattern2_cont2_shape2.png	1	2	2	2	1	4	0	0	0	0	0	0	0	0	0	0	0	0	1	4
113.72412109375	0.0999910267255473	232907	42	4	stim04_sf1_pattern2_cont1_shape1.png	0	42	0	213.495765259113	213.595756285838	0.0999910267255473	stim04_sf1_pattern2_cont1_shape1.png	1	2	1	1	1	2	0	0	0	0	0	0	0	0	0	0	0	0	1	4
114.2236328125	0.0999860415722651	233930	43	12	stim12_sf2_pattern2_cont1_shape1.png	0	43	0	213.995756461783	214.095742503356	0.0999860415722651	stim12_sf2_pattern2_cont1_shape1.png	2	2	1	1	1	2	0	0	0	0	0	0	0	0	0	0	0	0	1	4
114.7236328125	0.099997478098885	234954	44	6	stim06_sf1_pattern2_cont2_shape1.png	0	44	0	214.495759100982	214.595756579081	0.099997478098885	stim06_sf1_pattern2_cont2_shape1.png	1	2	2	1	1	2	0	0	0	0	0	0	0	0	0	0	0	0	1	4
115.2236328125	0.100000703785554	235978	45	5	stim05_sf1_pattern2_cont1_shape2.png	0	45	0	214.995737694149	215.095738397935	0.100000703785554	stim05_sf1_pattern2_cont1_shape2.png	1	2	1	2	1	4	0	0	0	0	0	0	0	0	0	0	0	0	1	4
115.7236328125	0.100015952490139	237002	46	13	stim13_sf2_pattern2_cont1_shape2.png	0	46	0	215.495708369719	215.595724322209	0.100015952490139	stim13_sf2_pattern2_cont1_shape2.png	2	2	1	2	1	4	0	0	0	0	0	0	0	0	0	0	0	0	1	4
116.2236328125	0.0999930794350803	238026	47	9	stim09_sf2_pattern1_cont1_shape2.png	0	47	0	215.99571863327	216.095711712705	0.0999930794350803	stim09_sf2_pattern1_cont1_shape2.png	2	1	1	2	1	3	0	0	0	0	0	0	0	0	0	0	0	0	1	4
116.7236328125	0.100004222718781	239050	48	3	stim03_sf1_pattern1_cont2_shape2.png	0	48	0	216.495704557543	216.595708780262	0.100004222718781	stim03_sf1_pattern1_cont2_shape2.png	1	1	2	2	1	3	0	0	0	0	0	0	0	0	0	0	0	0	1	4
117.2236328125	0.0999825226408575	240074	49	1	stim01_sf1_pattern1_cont1_shape2.png	0	49	0	216.995692534527	217.095675057168	0.0999825226408575	stim01_sf1_pattern1_cont1_shape2.png	1	1	1	2	1	3	0	0	0	0	0	0	0	0	0	0	0	0	1	4
117.7236328125	0.0999875077923207	241098	50	3	stim03_sf1_pattern1_cont2_shape2.png	0	50	1	217.49568989533	217.595677403122	0.0999875077923207	stim03_sf1_pattern1_cont2_shape2.png	1	1	2	2	1	3	0	0	0	0	0	0	0	0	0	0	0	0	1	4
118.2236328125	0.10002709577202	242122	51	3	stim03_sf1_pattern1_cont2_shape2.png	0	51	1	217.995653826281	218.095680922053	0.10002709577202	stim03_sf1_pattern1_cont2_shape2.png	1	1	2	2	1	3	0	0	0	0	0	0	0	0	0	0	0	0	1	4
118.7236328125	0.100002463250348	243146	52	9	stim09_sf2_pattern1_cont1_shape2.png	0	52	2	218.495653826281	218.595656289532	0.100002463250348	stim09_sf2_pattern1_cont1_shape2.png	2	1	1	2	1	3	0	0	0	0	0	0	0	0	0	0	0	0	1	4
119.2236328125	0.100010967336857	244170	53	4	stim04_sf1_pattern2_cont1_shape1.png	0	53	2	218.995627434293	219.09563840163	0.100010967336857	stim04_sf1_pattern2_cont1_shape1.png	1	2	1	1	1	2	0	0	0	0	0	0	0	0	0	0	0	0	1	4
119.7236328125	0.100000703787373	245194	54	10	stim10_sf2_pattern1_cont2_shape1.png	0	54	0	219.495630073492	219.595630777279	0.100000703787373	stim10_sf2_pattern1_cont2_shape1.png	2	1	2	1	1	1	0	0	0	0	0	0	0	0	0	0	0	0	1	4
120.2236328125	0.10000158351977	246218	55	15	stim15_sf2_pattern2_cont2_shape2.png	0	55	0	219.995602508528	220.095604092048	0.10000158351977	stim15_sf2_pattern2_cont2_shape2.png	2	2	2	2	1	4	0	0	0	0	0	0	0	0	0	0	0	0	1	4
120.7236328125	0.0999977713436238	247242	56	0	stim00_sf1_pattern1_cont1_shape1.png	0	56	0	220.495606320705	220.595604092048	0.0999977713436238	stim00_sf1_pattern1_cont1_shape1.png	1	1	1	1	1	1	0	0	0	0	0	0	0	0	0	0	0	0	1	4
121.2236328125	0.100002170007429	248266	57	14	stim14_sf2_pattern2_cont2_shape1.png	0	57	0	220.995579635473	221.095581805481	0.100002170007429	stim14_sf2_pattern2_cont2_shape1.png	2	2	2	1	1	2	0	0	0	0	0	0	0	0	0	0	0	0	1	4
121.7236328125	0.0999960118788294	249290	58	12	stim12_sf2_pattern2_cont1_shape1.png	0	58	0	221.495584034137	221.595580046016	0.0999960118788294	stim12_sf2_pattern2_cont1_shape1.png	2	2	1	1	1	2	0	0	0	0	0	0	0	0	0	0	0	0	1	4
122.2236328125	0.099997478098885	250314	59	7	stim07_sf1_pattern2_cont2_shape2.png	0	59	0	221.995555882686	222.095553360785	0.099997478098885	stim07_sf1_pattern2_cont2_shape2.png	1	2	2	2	1	4	0	0	0	0	0	0	0	0	0	0	0	0	1	4
122.7236328125	0.0999760712657007	251338	60	10	stim10_sf2_pattern1_cont2_shape1.png	0	60	0	222.495557642151	222.595533713416	0.0999760712657007	stim10_sf2_pattern1_cont2_shape1.png	2	1	2	1	1	1	0	0	0	0	0	0	0	0	0	0	0	0	1	4
123.2236328125	0.0999772442428366	252362	61	8	stim08_sf2_pattern1_cont1_shape1.png	0	61	0	222.995555296196	223.095532540439	0.0999772442428366	stim08_sf2_pattern1_cont1_shape1.png	2	1	1	1	1	1	0	0	0	0	0	0	0	0	0	0	0	0	1	4
123.7236328125	0.0999965983664879	253386	62	11	stim11_sf2_pattern1_cont2_shape2.png	0	62	0	223.495536235318	223.595532833684	0.0999965983664879	stim11_sf2_pattern1_cont2_shape2.png	2	1	2	2	1	3	0	0	0	0	0	0	0	0	0	0	0	0	1	4
124.2236328125	0.0999998240531568	254410	63	2	stim02_sf1_pattern1_cont2_shape1.png	0	63	0	223.995506031155	224.095505855208	0.0999998240531568	stim02_sf1_pattern1_cont2_shape1.png	1	1	2	1	1	1	0	0	0	0	0	0	0	0	0	0	0	0	1	4
124.7236328125	0.0999939591674774	255434	64	6	stim06_sf1_pattern2_cont2_shape1.png	0	64	0	224.495516881194	224.595510840361	0.0999939591674774	stim06_sf1_pattern2_cont2_shape1.png	1	2	2	1	1	2	0	0	0	0	0	0	0	0	0	0	0	0	1	4
125.2236328125	0.0999704996247601	256458	65	4	stim04_sf1_pattern2_cont1_shape1.png	0	65	0	224.99548257161	225.095453071235	0.0999704996247601	stim04_sf1_pattern2_cont1_shape1.png	1	2	1	1	1	2	0	0	0	0	0	0	0	0	0	0	0	0	1	4
125.7236328125	0.0999719658448157	257482	66	13	stim13_sf2_pattern2_cont1_shape2.png	0	66	0	225.495466443175	225.59543840902	0.0999719658448157	stim13_sf2_pattern2_cont1_shape2.png	2	2	1	2	1	4	0	0	0	0	0	0	0	0	0	0	0	0	1	4
126.2236328125	0.0999904402360698	258506	67	9	stim09_sf2_pattern1_cont1_shape2.png	0	67	0	225.995455299892	226.095445740128	0.0999904402360698	stim09_sf2_pattern1_cont1_shape2.png	2	1	1	2	1	3	0	0	0	0	0	0	0	0	0	0	0	0	1	4
126.7236328125	0.1000045159617	259530	68	1	stim01_sf1_pattern1_cont1_shape2.png	0	68	0	226.495443276875	226.595447792837	0.1000045159617	stim01_sf1_pattern1_cont1_shape2.png	1	1	1	2	1	3	0	0	0	0	0	0	0	0	0	0	0	0	1	4
127.2236328125	0.0999707928676798	260554	69	3	stim03_sf1_pattern1_cont2_shape2.png	0	69	0	226.995445036342	227.09541582921	0.0999707928676798	stim03_sf1_pattern1_cont2_shape2.png	1	1	2	2	1	3	0	0	0	0	0	0	0	0	0	0	0	0	1	4
127.7236328125	0.0999963051217492	261578	70	10	stim10_sf2_pattern1_cont2_shape1.png	0	70	1	227.495417178134	227.595413483255	0.0999963051217492	stim10_sf2_pattern1_cont2_shape1.png	2	1	2	1	1	1	0	0	0	0	0	0	0	0	0	0	0	0	1	4
128.2236328125	0.100010967336857	262602	71	10	stim10_sf2_pattern1_cont2_shape1.png	0	71	1	227.995398703742	228.095409671079	0.100010967336857	stim10_sf2_pattern1_cont2_shape1.png	2	1	2	1	1	1	0	0	0	0	0	0	0	0	0	0	0	0	1	4
128.7236328125	0.0999995308084181	263626	72	6	stim06_sf1_pattern2_cont2_shape1.png	0	72	2	228.495394011834	228.595393542642	0.0999995308084181	stim06_sf1_pattern2_cont2_shape1.png	1	2	2	1	1	2	0	0	0	0	0	0	0	0	0	0	0	0	1	4
129.2236328125	0.0999848685933102	264650	73	5	stim05_sf1_pattern2_cont1_shape2.png	0	73	2	228.995393132102	229.095378000695	0.0999848685933102	stim05_sf1_pattern2_cont1_shape2.png	1	2	1	2	1	4	0	0	0	0	0	0	0	0	0	0	0	0	1	4
129.7236328125	0.099987214547582	265674	74	15	stim15_sf2_pattern2_cont2_shape2.png	0	74	0	229.495394011834	229.595381226382	0.099987214547582	stim15_sf2_pattern2_cont2_shape2.png	2	2	2	2	1	4	0	0	0	0	0	0	0	0	0	0	0	0	1	4
130.2236328125	0.100003342984564	266698	75	5	stim05_sf1_pattern2_cont1_shape2.png	0	75	0	229.995370259046	230.095373602031	0.100003342984564	stim05_sf1_pattern2_cont1_shape2.png	1	2	1	2	1	4	0	0	0	0	0	0	0	0	0	0	0	0	1	4
130.7236328125	0.0999942524122162	267722	76	0	stim00_sf1_pattern1_cont1_shape1.png	0	76	0	230.495375537443	230.595369789855	0.0999942524122162	stim00_sf1_pattern1_cont1_shape1.png	1	1	1	1	1	1	0	0	0	0	0	0	0	0	0	0	0	0	1	4
131.22314453125	0.100008034893108	268745	77	7	stim07_sf1_pattern2_cont2_shape2.png	0	77	0	230.995342400838	231.095350435731	0.100008034893108	stim07_sf1_pattern2_cont2_shape2.png	1	2	2	2	1	4	0	0	0	0	0	0	0	0	0	0	0	0	1	4
131.72314453125	0.10001008760446	269769	78	2	stim02_sf1_pattern1_cont2_shape1.png	0	78	0	231.495328325111	231.595338412715	0.10001008760446	stim02_sf1_pattern1_cont2_shape1.png	1	1	2	1	1	1	0	0	0	0	0	0	0	0	0	0	0	0	1	4
132.22314453125	0.0999939591674774	270793	79	1	stim01_sf1_pattern1_cont1_shape2.png	0	79	0	231.995318354806	232.095312313973	0.0999939591674774	stim01_sf1_pattern1_cont1_shape2.png	1	1	1	2	1	3	0	0	0	0	0	0	0	0	0	0	0	0	1	4
132.72314453125	0.0999968916112266	271817	80	5	stim05_sf1_pattern2_cont1_shape2.png	0	80	0	232.495317475072	232.595314366683	0.0999968916112266	stim05_sf1_pattern2_cont1_shape2.png	1	2	1	2	1	4	0	0	0	0	0	0	0	0	0	0	0	0	1	4
133.22314453125	0.100015366000662	272841	81	9	stim09_sf2_pattern1_cont1_shape2.png	0	81	0	232.995290203353	233.095305569354	0.100015366000662	stim09_sf2_pattern1_cont1_shape2.png	2	1	1	2	1	3	0	0	0	0	0	0	0	0	0	0	0	0	1	4
133.72314453125	0.0999825226408575	273865	82	4	stim04_sf1_pattern2_cont1_shape1.png	0	82	0	233.49530779801	233.595290320651	0.0999825226408575	stim04_sf1_pattern2_cont1_shape1.png	1	2	1	1	1	2	0	0	0	0	0	0	0	0	0	0	0	0	1	4
134.22314453125	0.100006568671233	274889	83	12	stim12_sf2_pattern2_cont1_shape1.png	0	83	0	233.995265277588	234.095271846259	0.100006568671233	stim12_sf2_pattern2_cont1_shape1.png	2	2	1	1	1	2	0	0	0	0	0	0	0	0	0	0	0	0	1	4
134.72314453125	0.0999924929456029	275913	84	11	stim11_sf2_pattern1_cont2_shape2.png	0	84	0	234.495272608696	234.595265101641	0.0999924929456029	stim11_sf2_pattern1_cont2_shape2.png	2	1	2	2	1	3	0	0	0	0	0	0	0	0	0	0	0	0	1	4
135.22314453125	0.100000117297895	276937	85	6	stim06_sf1_pattern2_cont2_shape1.png	0	85	0	234.995242111288	235.095242228586	0.100000117297895	stim06_sf1_pattern2_cont2_shape1.png	1	2	2	1	1	2	0	0	0	0	0	0	0	0	0	0	0	0	1	4
135.72314453125	0.0999963051217492	277961	86	3	stim03_sf1_pattern1_cont2_shape2.png	0	86	0	235.495243284266	235.595239589387	0.0999963051217492	stim03_sf1_pattern1_cont2_shape2.png	1	1	2	2	1	3	0	0	0	0	0	0	0	0	0	0	0	0	1	4
136.22314453125	0.100009794359721	278985	87	15	stim15_sf2_pattern2_cont2_shape2.png	0	87	0	235.995226569341	236.095236363701	0.100009794359721	stim15_sf2_pattern2_cont2_shape2.png	2	2	2	2	1	4	0	0	0	0	0	0	0	0	0	0	0	0	1	4
136.72314453125	0.0999965983664879	280009	88	8	stim08_sf2_pattern1_cont1_shape1.png	0	88	0	236.495220117966	236.595216716332	0.0999965983664879	stim08_sf2_pattern1_cont1_shape1.png	2	1	1	1	1	1	0	0	0	0	0	0	0	0	0	0	0	0	1	4
137.22314453125	0.100008621380766	281033	89	10	stim10_sf2_pattern1_cont2_shape1.png	0	89	0	236.99519167327	237.095200294651	0.100008621380766	stim10_sf2_pattern1_cont2_shape1.png	2	1	2	1	1	1	0	0	0	0	0	0	0	0	0	0	0	0	1	4
137.72314453125	0.0999945456551359	282057	90	13	stim13_sf2_pattern2_cont1_shape2.png	0	90	0	237.495199004377	237.595193550032	0.0999945456551359	stim13_sf2_pattern2_cont1_shape2.png	2	2	1	2	1	4	0	0	0	0	0	0	0	0	0	0	0	0	1	4
138.22314453125	0.0999734320666903	283081	91	14	stim14_sf2_pattern2_cont2_shape1.png	0	91	0	237.995167627238	238.095141059304	0.0999734320666903	stim14_sf2_pattern2_cont2_shape1.png	2	2	2	1	1	2	0	0	0	0	0	0	0	0	0	0	0	0	1	4
138.72314453125	0.0999983578331012	284105	92	12	stim12_sf2_pattern2_cont1_shape1.png	0	92	0	238.495182582696	238.595180940529	0.0999983578331012	stim12_sf2_pattern2_cont1_shape1.png	2	2	1	1	1	2	0	0	0	0	0	0	0	0	0	0	0	0	1	4
139.22314453125	0.0999965983664879	285129	93	10	stim10_sf2_pattern1_cont2_shape1.png	0	93	0	238.995147686624	239.095144284991	0.0999965983664879	stim10_sf2_pattern1_cont2_shape1.png	2	1	2	1	1	1	0	0	0	0	0	0	0	0	0	0	0	0	1	4
139.72314453125	0.0999983578312822	286153	94	0	stim00_sf1_pattern1_cont1_shape1.png	0	94	0	239.495152671778	239.595151029609	0.0999983578312822	stim00_sf1_pattern1_cont1_shape1.png	1	1	1	1	1	1	0	0	0	0	0	0	0	0	0	0	0	0	1	4
140.22314453125	0.099999530810237	287177	95	9	stim09_sf2_pattern1_cont1_shape2.png	0	95	0	239.995118362194	240.095117893004	0.099999530810237	stim09_sf2_pattern1_cont1_shape2.png	2	1	1	2	1	3	0	0	0	0	0	0	0	0	0	0	0	0	1	4
140.72314453125	0.100006568673052	288201	96	3	stim03_sf1_pattern1_cont2_shape2.png	0	96	0	240.495106339178	240.595112907851	0.100006568673052	stim03_sf1_pattern1_cont2_shape2.png	1	1	2	2	1	3	0	0	0	0	0	0	0	0	0	0	0	0	1	4
141.22314453125	0.0999963051217492	289225	97	11	stim11_sf2_pattern1_cont2_shape2.png	0	97	0	240.995085812077	241.095082117199	0.0999963051217492	stim11_sf2_pattern1_cont2_shape2.png	2	1	2	2	1	3	0	0	0	0	0	0	0	0	0	0	0	0	1	4
141.72314453125	0.0999810564189829	290249	98	5	stim05_sf1_pattern2_cont1_shape2.png	0	98	0	241.495082293146	241.595063349565	0.0999810564189829	stim05_sf1_pattern2_cont1_shape2.png	1	2	1	2	1	4	0	0	0	0	0	0	0	0	0	0	0	0	1	4
142.22314453125	0.0999831091285159	291273	99	14	stim14_sf2_pattern2_cont2_shape1.png	0	99	0	241.995078187727	242.095061296855	0.0999831091285159	stim14_sf2_pattern2_cont2_shape1.png	2	2	2	1	1	2	0	0	0	0	0	0	0	0	0	0	0	0	1	4
142.72314453125	0.0999707928676798	292297	100	8	stim08_sf2_pattern1_cont1_shape1.png	0	100	0	242.495057367381	242.595028160249	0.0999707928676798	stim08_sf2_pattern1_cont1_shape1.png	2	1	1	1	1	1	0	0	0	0	0	0	0	0	0	0	0	0	1	4
143.22314453125	0.0999878010370594	293321	101	13	stim13_sf2_pattern2_cont1_shape2.png	0	101	0	242.99504563761	243.095033438647	0.0999878010370594	stim13_sf2_pattern2_cont1_shape2.png	2	2	1	2	1	4	0	0	0	0	0	0	0	0	0	0	0	0	1	4
143.72314453125	0.0999992375654983	294345	102	4	stim04_sf1_pattern2_cont1_shape1.png	0	102	0	243.495035374059	243.595034611624	0.0999992375654983	stim04_sf1_pattern2_cont1_shape1.png	1	2	1	1	1	2	0	0	0	0	0	0	0	0	0	0	0	0	1	4
144.22314453125	0.0999989443207596	295369	103	2	stim02_sf1_pattern1_cont2_shape1.png	0	103	0	243.995018952379	244.0950178967	0.0999989443207596	stim02_sf1_pattern1_cont2_shape1.png	1	1	2	1	1	1	0	0	0	0	0	0	0	0	0	0	0	0	1	4
144.72314453125	0.0999971848541463	296393	104	7	stim07_sf1_pattern2_cont2_shape2.png	0	104	0	244.495011328027	244.595008512881	0.0999971848541463	stim07_sf1_pattern2_cont2_shape2.png	1	2	2	2	1	4	0	0	0	0	0	0	0	0	0	0	0	0	1	4
145.22314453125	0.100010674092118	297417	105	15	stim15_sf2_pattern2_cont2_shape2.png	0	105	0	244.994996372568	245.095007046661	0.100010674092118	stim15_sf2_pattern2_cont2_shape2.png	2	2	2	2	1	4	0	0	0	0	0	0	0	0	0	0	0	0	1	4
145.72314453125	0.0999942524122162	298441	106	6	stim06_sf1_pattern2_cont2_shape1.png	0	106	0	245.495015140203	245.595009392615	0.0999942524122162	stim06_sf1_pattern2_cont2_shape1.png	1	2	2	1	1	2	0	0	0	0	0	0	0	0	0	0	0	0	1	4
146.22314453125	0.100012433556913	299465	107	1	stim01_sf1_pattern1_cont1_shape2.png	0	107	0	245.9949767252	246.094989158757	0.100012433556913	stim01_sf1_pattern1_cont1_shape2.png	1	1	1	2	1	3	0	0	0	0	0	0	0	0	0	0	0	0	1	4
146.72314453125	0.100003342986383	300489	108	5	stim05_sf1_pattern2_cont1_shape2.png	0	108	0	246.494977311688	246.594980654674	0.100003342986383	stim05_sf1_pattern2_cont1_shape2.png	1	2	1	2	1	4	0	0	0	0	0	0	0	0	0	0	0	0	1	4
147.22314453125	0.099987214547582	301513	109	7	stim07_sf1_pattern2_cont2_shape2.png	0	109	0	246.994963529207	247.094950743754	0.099987214547582	stim07_sf1_pattern2_cont2_shape2.png	1	2	2	2	1	4	0	0	0	0	0	0	0	0	0	0	0	0	1	4
147.72314453125	0.100009501114982	302537	110	0	stim00_sf1_pattern1_cont1_shape1.png	0	110	0	247.494943588594	247.594953089709	0.100009501114982	stim00_sf1_pattern1_cont1_shape1.png	1	1	1	1	1	1	0	0	0	0	0	0	0	0	0	0	0	0	1	4
148.22314453125	0.100001583517951	303561	111	1	stim01_sf1_pattern1_cont1_shape2.png	0	111	0	247.994945641305	248.094947224823	0.100001583517951	stim01_sf1_pattern1_cont1_shape2.png	1	1	1	2	1	3	0	0	0	0	0	0	0	0	0	0	0	0	1	4
148.72265625	0.0999942524122162	304584	112	9	stim09_sf2_pattern1_cont1_shape2.png	0	112	0	248.494936550731	248.594930803143	0.0999942524122162	stim09_sf2_pattern1_cont1_shape2.png	2	1	1	2	1	3	0	0	0	0	0	0	0	0	0	0	0	0	1	4
149.22265625	0.100003049739826	305608	113	11	stim11_sf2_pattern1_cont2_shape2.png	0	113	0	248.994904293859	249.094907343599	0.100003049739826	stim11_sf2_pattern1_cont2_shape2.png	2	1	2	2	1	3	0	0	0	0	0	0	0	0	0	0	0	0	1	4
149.72265625	0.0999842821074708	306632	114	4	stim04_sf1_pattern2_cont1_shape1.png	0	114	0	249.494921595271	249.594905877379	0.0999842821074708	stim04_sf1_pattern2_cont1_shape1.png	1	2	1	1	1	2	0	0	0	0	0	0	0	0	0	0	0	0	1	4
150.22265625	0.0999795901952893	307656	115	13	stim13_sf2_pattern2_cont1_shape2.png	0	115	0	249.994881714048	250.094861304244	0.0999795901952893	stim13_sf2_pattern2_cont1_shape2.png	2	2	1	2	1	4	0	0	0	0	0	0	0	0	0	0	0	0	1	4
150.72265625	0.100007448405449	308680	116	12	stim12_sf2_pattern2_cont1_shape1.png	0	116	0	250.494870570765	250.59487801917	0.100007448405449	stim12_sf2_pattern2_cont1_shape1.png	2	2	1	1	1	2	0	0	0	0	0	0	0	0	0	0	0	0	1	4
151.22265625	0.100005395695916	309704	117	6	stim06_sf1_pattern2_cont2_shape1.png	0	117	0	250.994856495037	251.094861890733	0.100005395695916	stim06_sf1_pattern2_cont2_shape1.png	1	2	2	1	1	2	0	0	0	0	0	0	0	0	0	0	0	0	1	4
151.72265625	0.099993372678	310728	118	8	stim08_sf2_pattern1_cont1_shape1.png	0	118	0	251.494863532902	251.59485690558	0.099993372678	stim08_sf2_pattern1_cont1_shape1.png	2	1	1	1	1	1	0	0	0	0	0	0	0	0	0	0	0	0	1	4
152.22265625	0.100003342984564	311752	119	15	stim15_sf2_pattern2_cont2_shape2.png	0	119	0	251.994831862517	252.094835205502	0.100003342984564	stim15_sf2_pattern2_cont2_shape2.png	2	2	2	2	1	4	0	0	0	0	0	0	0	0	0	0	0	0	1	4
152.72265625	0.099971672600077	312776	120	2	stim02_sf1_pattern1_cont2_shape1.png	0	120	0	252.494841832824	252.594813505424	0.099971672600077	stim02_sf1_pattern1_cont2_shape1.png	1	1	2	1	1	1	0	0	0	0	0	0	0	0	0	0	0	0	1	4
153.22265625	0.0999989443207596	313800	121	10	stim10_sf2_pattern1_cont2_shape1.png	0	121	0	252.994827170609	253.09482611493	0.0999989443207596	stim10_sf2_pattern1_cont2_shape1.png	2	1	2	1	1	1	0	0	0	0	0	0	0	0	0	0	0	0	1	4
153.72265625	0.0999816429066414	314824	122	3	stim03_sf1_pattern1_cont2_shape2.png	0	122	0	253.494830982785	253.594812625692	0.0999816429066414	stim03_sf1_pattern1_cont2_shape2.png	1	1	2	2	1	3	0	0	0	0	0	0	0	0	0	0	0	0	1	4
154.22265625	0.0999995308084181	315848	123	14	stim14_sf2_pattern2_cont2_shape1.png	0	123	0	253.994786409652	254.09478594046	0.0999995308084181	stim14_sf2_pattern2_cont2_shape1.png	2	2	2	1	1	2	0	0	0	0	0	0	0	0	0	0	0	0	1	4
154.72265625	0.0999825226408575	316872	124	13	stim13_sf2_pattern2_cont1_shape2.png	0	124	0	254.49479520698	254.594777729621	0.0999825226408575	stim13_sf2_pattern2_cont1_shape2.png	2	2	1	2	1	4	0	0	0	0	0	0	0	0	0	0	0	0	1	4
155.22265625	0.100014486268265	317896	125	8	stim08_sf2_pattern1_cont1_shape1.png	0	125	0	254.994741836517	255.094756322786	0.100014486268265	stim08_sf2_pattern1_cont1_shape1.png	2	1	1	1	1	1	0	0	0	0	0	0	0	0	0	0	0	0	1	4
155.72265625	0.100048209362285	318920	126	10	stim10_sf2_pattern1_cont2_shape1.png	0	126	0	255.494711339112	255.594759548474	0.100048209362285	stim10_sf2_pattern1_cont2_shape1.png	2	1	2	1	1	1	0	0	0	0	0	0	0	0	0	0	0	0	1	4
156.22265625	0.100000410542634	319944	127	3	stim03_sf1_pattern1_cont2_shape2.png	0	127	0	255.994740956785	256.094741367328	0.100000410542634	stim03_sf1_pattern1_cont2_shape2.png	1	1	2	2	1	3	0	0	0	0	0	0	0	0	0	0	0	0	1	4
156.72265625	0.0999977713436238	320968	128	5	stim05_sf1_pattern2_cont1_shape2.png	0	128	0	256.494720136439	256.594717907783	0.0999977713436238	stim05_sf1_pattern2_cont1_shape2.png	1	2	1	2	1	4	0	0	0	0	0	0	0	0	0	0	0	0	1	4
157.22265625	0.100001583517951	321992	129	15	stim15_sf2_pattern2_cont2_shape2.png	0	129	0	256.994698143119	257.094699726636	0.100001583517951	stim15_sf2_pattern2_cont2_shape2.png	2	2	2	2	1	4	0	0	0	0	0	0	0	0	0	0	0	0	1	4
157.72265625	0.0999986510760209	323016	130	9	stim09_sf2_pattern1_cont1_shape2.png	0	130	0	257.494694037698	257.594692688774	0.0999986510760209	stim09_sf2_pattern1_cont1_shape2.png	2	1	1	2	1	3	0	0	0	0	0	0	0	0	0	0	0	0	1	4
158.22265625	0.100000410542634	324040	131	14	stim14_sf2_pattern2_cont2_shape1.png	0	131	0	257.994677322773	258.094677733316	0.100000410542634	stim14_sf2_pattern2_cont2_shape1.png	2	2	2	1	1	2	0	0	0	0	0	0	0	0	0	0	0	0	1	4
158.72265625	0.0999734320666903	325064	132	0	stim00_sf1_pattern1_cont1_shape1.png	0	132	0	258.494695210675	258.594668642741	0.0999734320666903	stim00_sf1_pattern1_cont1_shape1.png	1	1	1	1	1	1	0	0	0	0	0	0	0	0	0	0	0	0	1	4
159.22265625	0.0999880942817981	326088	133	12	stim12_sf2_pattern2_cont1_shape1.png	0	133	0	258.994665299757	259.094653394039	0.0999880942817981	stim12_sf2_pattern2_cont1_shape1.png	2	2	1	1	1	2	0	0	0	0	0	0	0	0	0	0	0	0	1	4
159.72265625	0.099971672601896	327112	134	11	stim11_sf2_pattern1_cont2_shape2.png	0	134	0	259.494682894414	259.594654567016	0.099971672601896	stim11_sf2_pattern1_cont2_shape2.png	2	1	2	2	1	3	0	0	0	0	0	0	0	0	0	0	0	0	1	4
160.22265625	0.100008328137847	328136	135	1	stim01_sf1_pattern1_cont1_shape2.png	0	135	0	259.994645065901	260.094653394039	0.100008328137847	stim01_sf1_pattern1_cont1_shape2.png	1	1	1	2	1	3	0	0	0	0	0	0	0	0	0	0	0	0	1	4
160.72265625	0.0999314981327188	329160	136	2	stim02_sf1_pattern1_cont2_shape1.png	0	136	0	260.494653863228	260.594585361361	0.0999314981327188	stim02_sf1_pattern1_cont2_shape1.png	1	1	2	1	1	1	0	0	0	0	0	0	0	0	0	0	0	0	1	4
161.22265625	0.0999968916112266	330184	137	4	stim04_sf1_pattern2_cont1_shape1.png	0	137	0	260.994628644219	261.09462553583	0.0999968916112266	stim04_sf1_pattern2_cont1_shape1.png	1	2	1	1	1	2	0	0	0	0	0	0	0	0	0	0	0	0	1	4
161.72265625	0.100000410542634	331208	138	6	stim06_sf1_pattern2_cont2_shape1.png	0	138	0	261.494622779333	261.594623189876	0.100000410542634	stim06_sf1_pattern2_cont2_shape1.png	1	2	2	1	1	2	0	0	0	0	0	0	0	0	0	0	0	0	1	4
162.22265625	0.0999834023714357	332232	139	7	stim07_sf1_pattern2_cont2_shape2.png	0	139	0	261.994619846892	262.094603249263	0.0999834023714357	stim07_sf1_pattern2_cont2_shape2.png	1	2	2	2	1	4	0	0	0	0	0	0	0	0	0	0	0	0	1	4
162.72265625	0.0999795901971083	333256	140	5	stim05_sf1_pattern2_cont1_shape2.png	0	140	0	262.494612222539	262.594591812736	0.0999795901971083	stim05_sf1_pattern2_cont1_shape2.png	1	2	1	2	1	4	0	0	0	0	0	0	0	0	0	0	0	0	1	4
163.22265625	0.100029148483372	334280	141	8	stim08_sf2_pattern1_cont1_shape1.png	0	141	0	262.994556506123	263.094585654606	0.100029148483372	stim08_sf2_pattern1_cont1_shape1.png	2	1	1	1	1	1	0	0	0	0	0	0	0	0	0	0	0	0	1	4
163.72265625	0.0999939591674774	335304	142	2	stim02_sf1_pattern1_cont2_shape1.png	0	142	0	263.494581138644	263.594575097812	0.0999939591674774	stim02_sf1_pattern1_cont2_shape1.png	1	1	2	1	1	1	0	0	0	0	0	0	0	0	0	0	0	0	1	4
164.22265625	0.0999895605036727	336328	143	6	stim06_sf1_pattern2_cont2_shape1.png	0	143	0	263.994567356161	264.094556916665	0.0999895605036727	stim06_sf1_pattern2_cont2_shape1.png	1	2	2	1	1	2	0	0	0	0	0	0	0	0	0	0	0	0	1	4
164.72265625	0.0999965983664879	337352	144	12	stim12_sf2_pattern2_cont1_shape1.png	0	144	0	264.494552693946	264.594549292313	0.0999965983664879	stim12_sf2_pattern2_cont1_shape1.png	2	2	1	1	1	2	0	0	0	0	0	0	0	0	0	0	0	0	1	4
165.22265625	0.100012726801651	338376	145	9	stim09_sf2_pattern1_cont1_shape2.png	0	145	0	264.994525715472	265.094538442274	0.100012726801651	stim09_sf2_pattern1_cont1_shape2.png	2	1	1	2	1	3	0	0	0	0	0	0	0	0	0	0	0	0	1	4
165.72216796875	0.0999951321446133	339399	146	1	stim01_sf1_pattern1_cont1_shape2.png	0	146	0	265.494530700626	265.59452583277	0.0999951321446133	stim01_sf1_pattern1_cont1_shape2.png	1	1	1	2	1	3	0	0	0	0	0	0	0	0	0	0	0	0	1	4
166.22216796875	0.0999763645086205	340423	147	7	stim07_sf1_pattern2_cont2_shape2.png	0	147	0	265.99450166944	266.094478033949	0.0999763645086205	stim07_sf1_pattern2_cont2_shape2.png	1	2	2	2	1	4	0	0	0	0	0	0	0	0	0	0	0	0	1	4
166.72216796875	0.0999957186340907	341447	148	0	stim00_sf1_pattern1_cont1_shape1.png	0	148	0	266.494506947836	266.59450266647	0.0999957186340907	stim00_sf1_pattern1_cont1_shape1.png	1	1	1	1	1	1	0	0	0	0	0	0	0	0	0	0	0	0	1	4
167.22216796875	0.0999822293961188	342471	149	14	stim14_sf2_pattern2_cont2_shape1.png	0	149	0	266.994495218065	267.094477447461	0.0999822293961188	stim14_sf2_pattern2_cont2_shape1.png	2	2	2	1	1	2	0	0	0	0	0	0	0	0	0	0	0	0	1	4
167.72216796875	0.0999951321446133	343495	150	15	stim15_sf2_pattern2_cont2_shape2.png	0	150	0	267.494483781536	267.594478913681	0.0999951321446133	stim15_sf2_pattern2_cont2_shape2.png	2	2	2	2	1	4	0	0	0	0	0	0	0	0	0	0	0	0	1	4
168.22216796875	0.100018298444411	344519	151	11	stim11_sf2_pattern1_cont2_shape2.png	0	151	0	267.994438035426	268.094456333871	0.100018298444411	stim11_sf2_pattern1_cont2_shape2.png	2	1	2	2	1	3	0	0	0	0	0	0	0	0	0	0	0	0	1	4
168.72216796875	0.100005102451178	345543	152	4	stim04_sf1_pattern2_cont1_shape1.png	0	152	0	268.494439794893	268.594444897344	0.100005102451178	stim04_sf1_pattern2_cont1_shape1.png	1	2	1	1	1	2	0	0	0	0	0	0	0	0	0	0	0	0	1	4
169.22216796875	0.100000410540815	346567	153	10	stim10_sf2_pattern1_cont2_shape1.png	0	153	0	268.994429238099	269.09442964864	0.100000410540815	stim10_sf2_pattern1_cont2_shape1.png	2	1	2	1	1	1	0	0	0	0	0	0	0	0	0	0	0	0	1	4
169.72216796875	0.0999945456551359	347591	154	3	stim03_sf1_pattern1_cont2_shape2.png	0	154	0	269.494435102984	269.59442964864	0.0999945456551359	stim03_sf1_pattern1_cont2_shape2.png	1	1	2	2	1	3	0	0	0	0	0	0	0	0	0	0	0	0	1	4
170.22216796875	0.0999960118788294	348615	155	13	stim13_sf2_pattern2_cont1_shape2.png	0	155	0	269.994410177218	270.094406189097	0.0999960118788294	stim13_sf2_pattern2_cont1_shape2.png	2	2	1	2	1	4	0	0	0	0	0	0	0	0	0	0	0	0	1	4
170.72216796875	0.100005395695916	349639	156	5	stim05_sf1_pattern2_cont1_shape2.png	0	156	0	270.494409004241	270.594414399937	0.100005395695916	stim05_sf1_pattern2_cont1_shape2.png	1	2	1	2	1	4	0	0	0	0	0	0	0	0	0	0	0	0	1	4
171.22216796875	0.100019178176808	350663	157	4	stim04_sf1_pattern2_cont1_shape1.png	0	157	0	270.994362671643	271.09438184982	0.100019178176808	stim04_sf1_pattern2_cont1_shape1.png	1	2	1	1	1	2	0	0	0	0	0	0	0	0	0	0	0	0	1	4
171.72216796875	0.100013313291129	351687	158	9	stim09_sf2_pattern1_cont1_shape2.png	0	158	0	271.494350062138	271.594363375429	0.100013313291129	stim09_sf2_pattern1_cont1_shape2.png	2	1	1	2	1	3	0	0	0	0	0	0	0	0	0	0	0	0	1	4
172.22216796875	0.100020057911024	352711	159	14	stim14_sf2_pattern2_cont2_shape1.png	0	159	0	271.994337745877	272.094357803788	0.100020057911024	stim14_sf2_pattern2_cont2_shape1.png	2	2	2	1	1	2	0	0	0	0	0	0	0	0	0	0	0	0	1	4
172.72216796875	0.100007448405449	353735	160	3	stim03_sf1_pattern1_cont2_shape2.png	0	160	0	272.494339505343	272.594346953749	0.100007448405449	stim03_sf1_pattern1_cont2_shape2.png	1	1	2	2	1	3	0	0	0	0	0	0	0	0	0	0	0	0	1	4
173.22216796875	0.0999968916112266	354759	161	10	stim10_sf2_pattern1_cont2_shape1.png	0	161	0	272.994317218776	273.094314110387	0.0999968916112266	stim10_sf2_pattern1_cont2_shape1.png	2	1	2	1	1	1	0	0	0	0	0	0	0	0	0	0	0	0	1	4
173.72216796875	0.0999980645865435	355783	162	15	stim15_sf2_pattern2_cont2_shape2.png	0	162	0	273.494315752556	273.594313817142	0.0999980645865435	stim15_sf2_pattern2_cont2_shape2.png	2	2	2	2	1	4	0	0	0	0	0	0	0	0	0	0	0	0	1	4
174.22216796875	0.100013606534048	356807	163	0	stim00_sf1_pattern1_cont1_shape1.png	0	163	0	273.994297864654	274.094311471188	0.100013606534048	stim00_sf1_pattern1_cont1_shape1.png	1	1	1	1	1	1	0	0	0	0	0	0	0	0	0	0	0	0	1	4
174.72216796875	0.0999983578312822	357831	164	13	stim13_sf2_pattern2_cont1_shape2.png	0	164	0	274.494300210608	274.59429856844	0.0999983578312822	stim13_sf2_pattern2_cont1_shape2.png	2	2	1	2	1	4	0	0	0	0	0	0	0	0	0	0	0	0	1	4
175.22216796875	0.0999895605036727	358855	165	7	stim07_sf1_pattern2_cont2_shape2.png	0	165	0	274.994285255148	275.094274815652	0.0999895605036727	stim07_sf1_pattern2_cont2_shape2.png	1	2	2	2	1	4	0	0	0	0	0	0	0	0	0	0	0	0	1	4
175.72216796875	0.0999924929456029	359879	166	6	stim06_sf1_pattern2_cont2_shape1.png	0	166	0	275.494299917364	275.594292410309	0.0999924929456029	stim06_sf1_pattern2_cont2_shape1.png	1	2	2	1	1	2	0	0	0	0	0	0	0	0	0	0	0	0	1	4
176.22216796875	0.0999948389016936	360903	167	11	stim11_sf2_pattern1_cont2_shape2.png	0	167	0	275.99427381862	276.094268657522	0.0999948389016936	stim11_sf2_pattern1_cont2_shape2.png	2	1	2	2	1	3	0	0	0	0	0	0	0	0	0	0	0	0	1	4
176.72216796875	0.0999927861903416	361927	168	12	stim12_sf2_pattern2_cont1_shape1.png	0	168	0	276.494278217286	276.594271003476	0.0999927861903416	stim12_sf2_pattern2_cont1_shape1.png	2	2	1	1	1	2	0	0	0	0	0	0	0	0	0	0	0	0	1	4
177.22216796875	0.0999930794350803	362951	169	2	stim02_sf1_pattern1_cont2_shape1.png	0	169	0	276.994245080679	277.094238160114	0.0999930794350803	stim02_sf1_pattern1_cont2_shape1.png	1	1	2	1	1	1	0	0	0	0	0	0	0	0	0	0	0	0	1	4
177.72216796875	0.0999828158837772	363975	170	1	stim01_sf1_pattern1_cont1_shape2.png	0	170	0	277.494242734725	277.594225550609	0.0999828158837772	stim01_sf1_pattern1_cont1_shape2.png	1	1	1	2	1	3	0	0	0	0	0	0	0	0	0	0	0	0	1	4
178.22216796875	0.0999936659227387	364999	171	8	stim08_sf2_pattern1_cont1_shape1.png	0	171	0	277.99421780896	278.094211474883	0.0999936659227387	stim08_sf2_pattern1_cont1_shape1.png	2	1	1	1	1	1	0	0	0	0	0	0	0	0	0	0	0	0	1	4
198.60498046875	0.0999834023714357	406743	172	7	stim07_sf1_pattern2_cont2_shape2.png	1	0	0	298.377091638256	298.477075040628	0.0999834023714357	stim07_sf1_pattern2_cont2_shape2.png	1	2	2	2	1	4	0	0	0	0	0	0	0	0	0	0	0	0	1	4
199.10498046875	0.0999971848541463	407767	173	3	stim03_sf1_pattern1_cont2_shape2.png	1	1	0	298.87705029081	298.977047475664	0.0999971848541463	stim03_sf1_pattern1_cont2_shape2.png	1	1	2	2	1	3	0	0	0	0	0	0	0	0	0	0	0	0	1	4
199.60498046875	0.099993372678	408791	174	10	stim10_sf2_pattern1_cont2_shape1.png	1	2	0	299.377057915162	299.47705128784	0.099993372678	stim10_sf2_pattern1_cont2_shape1.png	2	1	2	1	1	1	0	0	0	0	0	0	0	0	0	0	0	0	1	4
200.10498046875	0.0999968916112266	409815	175	9	stim09_sf2_pattern1_cont1_shape2.png	1	3	0	299.877042959703	299.977039851314	0.0999968916112266	stim09_sf2_pattern1_cont1_shape2.png	2	1	1	2	1	3	0	0	0	0	0	0	0	0	0	0	0	0	1	4
200.60498046875	0.0999942524122162	410839	176	0	stim00_sf1_pattern1_cont1_shape1.png	1	4	0	300.377033575885	300.477027828298	0.0999942524122162	stim00_sf1_pattern1_cont1_shape1.png	1	1	1	1	1	1	0	0	0	0	0	0	0	0	0	0	0	0	1	4
201.10498046875	0.0999792969541886	411863	177	5	stim05_sf1_pattern2_cont1_shape2.png	1	5	0	300.877018327181	300.976997624135	0.0999792969541886	stim05_sf1_pattern2_cont1_shape2.png	1	2	1	2	1	4	0	0	0	0	0	0	0	0	0	0	0	0	1	4
201.6044921875	0.0999963051217492	412886	178	6	stim06_sf1_pattern2_cont2_shape1.png	1	6	0	301.376987536531	301.476983841652	0.0999963051217492	stim06_sf1_pattern2_cont2_shape1.png	1	2	2	1	1	2	0	0	0	0	0	0	0	0	0	0	0	0	1	4
202.1044921875	0.0999754847762233	413910	179	12	stim12_sf2_pattern2_cont1_shape1.png	1	7	0	301.876999559547	301.976975044323	0.0999754847762233	stim12_sf2_pattern2_cont1_shape1.png	2	2	1	1	1	2	0	0	0	0	0	0	0	0	0	0	0	0	1	4
202.6044921875	0.099999530810237	414934	180	8	stim08_sf2_pattern1_cont1_shape1.png	1	8	0	302.376984897332	302.476984428142	0.099999530810237	stim08_sf2_pattern1_cont1_shape1.png	2	1	1	1	1	1	0	0	0	0	0	0	0	0	0	0	0	0	1	4
203.1044921875	0.0999781239752338	415958	181	13	stim13_sf2_pattern2_cont1_shape2.png	1	9	0	302.876972287828	302.976950411803	0.0999781239752338	stim13_sf2_pattern2_cont1_shape2.png	2	2	1	2	1	4	0	0	0	0	0	0	0	0	0	0	0	0	1	4
203.6044921875	0.100023283597693	416982	182	2	stim02_sf1_pattern1_cont2_shape1.png	1	10	0	303.376930647137	303.476953930734	0.100023283597693	stim02_sf1_pattern1_cont2_shape1.png	1	1	2	1	1	1	0	0	0	0	0	0	0	0	0	0	0	0	1	4
204.1044921875	0.0999963051217492	418006	183	11	stim11_sf2_pattern1_cont2_shape2.png	1	11	0	303.876947362061	303.976943667183	0.0999963051217492	stim11_sf2_pattern1_cont2_shape2.png	2	1	2	2	1	3	0	0	0	0	0	0	0	0	0	0	0	0	1	4
204.6044921875	0.099991319968467	419030	184	1	stim01_sf1_pattern1_cont1_shape2.png	1	12	0	304.376940324199	304.476931644167	0.099991319968467	stim01_sf1_pattern1_cont1_shape2.png	1	1	1	2	1	3	0	0	0	0	0	0	0	0	0	0	0	0	1	4
205.1044921875	0.0999795901971083	420054	185	14	stim14_sf2_pattern2_cont2_shape1.png	1	13	0	304.876924782251	304.976904372448	0.0999795901971083	stim14_sf2_pattern2_cont2_shape1.png	2	2	2	1	1	2	0	0	0	0	0	0	0	0	0	0	0	0	1	4
205.6044921875	0.100012433558732	421078	186	4	stim04_sf1_pattern2_cont1_shape1.png	1	14	0	305.376920970075	305.476933403634	0.100012433558732	stim04_sf1_pattern2_cont1_shape1.png	1	2	1	1	1	2	0	0	0	0	0	0	0	0	0	0	0	0	1	4
206.1044921875	0.0999869213046622	422102	187	15	stim15_sf2_pattern2_cont2_shape2.png	1	15	0	305.876887246981	305.976874168286	0.0999869213046622	stim15_sf2_pattern2_cont2_shape2.png	2	2	2	2	1	4	0	0	0	0	0	0	0	0	0	0	0	0	1	4
206.6044921875	0.100002756496906	423126	188	0	stim00_sf1_pattern1_cont1_shape1.png	1	16	0	306.37685850904	306.476861265537	0.100002756496906	stim00_sf1_pattern1_cont1_shape1.png	1	1	1	1	1	1	0	0	0	0	0	0	0	0	0	0	0	0	1	4
207.1044921875	0.100026509284362	424150	189	15	stim15_sf2_pattern2_cont2_shape2.png	1	17	0	306.876832996786	306.97685950607	0.100026509284362	stim15_sf2_pattern2_cont2_shape2.png	2	2	2	2	1	4	0	0	0	0	0	0	0	0	0	0	0	0	1	4
207.6044921875	0.100020351153944	425174	190	13	stim13_sf2_pattern2_cont1_shape2.png	1	18	0	307.376821560259	307.476841911413	0.100020351153944	stim13_sf2_pattern2_cont1_shape2.png	2	2	1	2	1	4	0	0	0	0	0	0	0	0	0	0	0	0	1	4
208.1044921875	0.100009501114982	426198	191	5	stim05_sf1_pattern2_cont1_shape2.png	1	19	0	307.876809830486	307.976819331601	0.100009501114982	stim05_sf1_pattern2_cont1_shape2.png	1	2	1	2	1	4	0	0	0	0	0	0	0	0	0	0	0	0	1	4
208.6044921875	0.100011847069254	427222	192	9	stim09_sf2_pattern1_cont1_shape2.png	1	20	0	308.376807484532	308.476819331601	0.100011847069254	stim09_sf2_pattern1_cont1_shape2.png	2	1	1	2	1	3	0	0	0	0	0	0	0	0	0	0	0	0	1	4
209.1044921875	0.100018591687331	428246	193	7	stim07_sf1_pattern2_cont2_shape2.png	1	21	0	308.876787543921	308.976806135608	0.100018591687331	stim07_sf1_pattern2_cont2_shape2.png	1	2	2	2	1	4	0	0	0	0	0	0	0	0	0	0	0	0	1	4
209.6044921875	0.100022403863477	429270	194	8	stim08_sf2_pattern1_cont1_shape1.png	1	22	0	309.376772881706	309.476795285569	0.100022403863477	stim08_sf2_pattern1_cont1_shape1.png	2	1	1	1	1	1	0	0	0	0	0	0	0	0	0	0	0	0	1	4
210.1044921875	0.099989267258934	430294	195	14	stim14_sf2_pattern2_cont2_shape1.png	1	23	0	309.876794581784	309.976783849042	0.099989267258934	stim14_sf2_pattern2_cont2_shape1.png	2	2	2	1	1	2	0	0	0	0	0	0	0	0	0	0	0	0	1	4
210.6044921875	0.0999960118770105	431318	196	10	stim10_sf2_pattern1_cont2_shape1.png	1	24	0	310.376776693882	310.476772705759	0.0999960118770105	stim10_sf2_pattern1_cont2_shape1.png	2	1	2	1	1	1	0	0	0	0	0	0	0	0	0	0	0	0	1	4
211.1044921875	0.100028855240453	432342	197	3	stim03_sf1_pattern1_cont2_shape2.png	1	25	0	310.876767310063	310.976796165303	0.100028855240453	stim03_sf1_pattern1_cont2_shape2.png	1	1	2	2	1	3	0	0	0	0	0	0	0	0	0	0	0	0	1	4
211.6044921875	0.0999963051217492	433366	198	6	stim06_sf1_pattern2_cont2_shape1.png	1	26	0	311.376777866859	311.476774171981	0.0999963051217492	stim06_sf1_pattern2_cont2_shape1.png	1	2	2	1	1	2	0	0	0	0	0	0	0	0	0	0	0	0	1	4
212.1044921875	0.0999751915314846	434390	199	2	stim02_sf1_pattern1_cont2_shape1.png	1	27	0	311.876768189797	311.976743381329	0.0999751915314846	stim02_sf1_pattern1_cont2_shape1.png	1	1	2	1	1	1	0	0	0	0	0	0	0	0	0	0	0	0	1	4
212.6044921875	0.0999930794332613	435414	200	11	stim11_sf2_pattern1_cont2_shape2.png	1	28	0	312.376757633003	312.476750712436	0.0999930794332613	stim11_sf2_pattern1_cont2_shape2.png	2	1	2	2	1	3	0	0	0	0	0	0	0	0	0	0	0	0	1	4
213.1044921875	0.0999880942817981	436438	201	1	stim01_sf1_pattern1_cont1_shape2.png	1	29	0	312.876735346435	312.976723440717	0.0999880942817981	stim01_sf1_pattern1_cont1_shape2.png	1	1	1	2	1	3	0	0	0	0	0	0	0	0	0	0	0	0	1	4
213.6044921875	0.100002170007429	437462	202	12	stim12_sf2_pattern2_cont1_shape1.png	1	30	0	313.376723323419	313.476725493427	0.100002170007429	stim12_sf2_pattern2_cont1_shape1.png	2	2	1	1	1	2	0	0	0	0	0	0	0	0	0	0	0	0	1	4
214.1044921875	0.099995425387533	438486	203	4	stim04_sf1_pattern2_cont1_shape1.png	1	31	0	313.876711593648	313.976707019036	0.099995425387533	stim04_sf1_pattern2_cont1_shape1.png	1	2	1	1	1	2	0	0	0	0	0	0	0	0	0	0	0	0	1	4
214.6044921875	0.0999986510760209	439510	204	11	stim11_sf2_pattern1_cont2_shape2.png	1	32	0	314.376698984142	314.476697635218	0.0999986510760209	stim11_sf2_pattern1_cont2_shape2.png	2	1	2	2	1	3	0	0	0	0	0	0	0	0	0	0	0	0	1	4
215.1044921875	0.100026216041442	440534	205	12	stim12_sf2_pattern2_cont1_shape1.png	1	33	0	314.876657636696	314.976683852738	0.100026216041442	stim12_sf2_pattern2_cont1_shape1.png	2	2	1	1	1	2	0	0	0	0	0	0	0	0	0	0	0	0	1	4
215.6044921875	0.0999957186322717	441558	206	8	stim08_sf2_pattern1_cont1_shape1.png	1	34	0	315.376675231355	315.476670949987	0.0999957186322717	stim08_sf2_pattern1_cont1_shape1.png	2	1	1	1	1	1	0	0	0	0	0	0	0	0	0	0	0	0	1	4
216.1044921875	0.0999819361513801	442582	207	4	stim04_sf1_pattern2_cont1_shape1.png	1	35	0	315.876661742117	315.976643678268	0.0999819361513801	stim04_sf1_pattern2_cont1_shape1.png	1	2	1	1	1	2	0	0	0	0	0	0	0	0	0	0	0	0	1	4
216.6044921875	0.0999968916094076	443606	208	2	stim02_sf1_pattern1_cont2_shape1.png	1	36	0	316.376651478568	316.476648370177	0.0999968916094076	stim02_sf1_pattern1_cont2_shape1.png	1	1	2	1	1	1	0	0	0	0	0	0	0	0	0	0	0	0	1	4
217.1044921875	0.099977830730495	444630	209	9	stim09_sf2_pattern1_cont1_shape2.png	1	37	0	316.876641215016	316.976619045747	0.099977830730495	stim09_sf2_pattern1_cont1_shape2.png	2	1	1	2	1	3	0	0	0	0	0	0	0	0	0	0	0	0	1	4
217.6044921875	0.099991319968467	445654	210	5	stim05_sf1_pattern2_cont1_shape2.png	1	38	0	317.376610424366	317.476601744334	0.099991319968467	stim05_sf1_pattern2_cont1_shape2.png	1	2	1	2	1	4	0	0	0	0	0	0	0	0	0	0	0	0	1	4
218.1044921875	0.0999754847762233	446678	211	0	stim00_sf1_pattern1_cont1_shape1.png	1	39	0	317.876618341961	317.976593826737	0.0999754847762233	stim00_sf1_pattern1_cont1_shape1.png	1	1	1	1	1	1	0	0	0	0	0	0	0	0	0	0	0	0	1	4
218.6044921875	0.100000410540815	447702	212	1	stim01_sf1_pattern1_cont1_shape2.png	1	40	0	318.376603093258	318.476603503799	0.100000410540815	stim01_sf1_pattern1_cont1_shape2.png	1	1	1	2	1	3	0	0	0	0	0	0	0	0	0	0	0	0	1	4
219.10400390625	0.099958183363924	448725	213	6	stim06_sf1_pattern2_cont2_shape1.png	1	41	0	318.876594882417	318.976553065781	0.099958183363924	stim06_sf1_pattern2_cont2_shape1.png	1	2	2	1	1	2	0	0	0	0	0	0	0	0	0	0	0	0	1	4
219.60400390625	0.100004515963519	449749	214	13	stim13_sf2_pattern2_cont1_shape2.png	1	42	0	319.376573182339	319.476577698302	0.100004515963519	stim13_sf2_pattern2_cont1_shape2.png	2	2	1	2	1	4	0	0	0	0	0	0	0	0	0	0	0	0	1	4
220.10400390625	0.0999743117990874	450773	215	10	stim10_sf2_pattern1_cont2_shape1.png	1	43	0	319.876571716119	319.976546027918	0.0999743117990874	stim10_sf2_pattern1_cont2_shape1.png	2	1	2	1	1	1	0	0	0	0	0	0	0	0	0	0	0	0	1	4
220.60400390625	0.0999957186340907	451797	216	7	stim07_sf1_pattern2_cont2_shape2.png	1	44	0	320.376557933636	320.47655365227	0.0999957186340907	stim07_sf1_pattern2_cont2_shape2.png	1	2	2	2	1	4	0	0	0	0	0	0	0	0	0	0	0	0	1	4
221.10400390625	0.0999725523324742	452821	217	15	stim15_sf2_pattern2_cont2_shape2.png	1	45	0	320.876550016041	320.976522568373	0.0999725523324742	stim15_sf2_pattern2_cont2_shape2.png	2	2	2	2	1	4	0	0	0	0	0	0	0	0	0	0	0	0	1	4
221.60400390625	0.0999754847762233	453845	218	3	stim03_sf1_pattern1_cont2_shape2.png	1	46	0	321.376532714627	321.476508199403	0.0999754847762233	stim03_sf1_pattern1_cont2_shape2.png	1	1	2	2	1	3	0	0	0	0	0	0	0	0	0	0	0	0	1	4
222.10400390625	0.0999634617601259	454869	219	14	stim14_sf2_pattern2_cont2_shape1.png	1	47	0	321.876520398366	321.976483860126	0.0999634617601259	stim14_sf2_pattern2_cont2_shape1.png	2	2	2	1	1	2	0	0	0	0	0	0	0	0	0	0	0	0	1	4
222.60400390625	0.100042344476606	455893	220	5	stim05_sf1_pattern2_cont1_shape2.png	1	48	0	322.376445327825	322.476487672302	0.100042344476606	stim05_sf1_pattern2_cont1_shape2.png	1	2	1	2	1	4	0	0	0	0	0	0	0	0	0	0	0	0	1	4
223.10400390625	0.0999666874486138	456917	221	9	stim09_sf2_pattern1_cont1_shape2.png	1	49	0	322.876470546835	322.976437234283	0.0999666874486138	stim09_sf2_pattern1_cont1_shape2.png	2	1	1	2	1	3	0	0	0	0	0	0	0	0	0	0	0	0	1	4
223.60400390625	0.0999790037094499	457941	222	13	stim13_sf2_pattern2_cont1_shape2.png	1	50	0	323.376459990041	323.47643899375	0.0999790037094499	stim13_sf2_pattern2_cont1_shape2.png	2	2	1	2	1	4	0	0	0	0	0	0	0	0	0	0	0	0	1	4
224.10400390625	0.0999960118770105	458965	223	8	stim08_sf2_pattern1_cont1_shape1.png	1	51	0	323.876427733168	323.976423745045	0.0999960118770105	stim08_sf2_pattern1_cont1_shape1.png	2	1	1	1	1	1	0	0	0	0	0	0	0	0	0	0	0	0	1	4
224.60400390625	0.0999725523342931	459989	224	4	stim04_sf1_pattern2_cont1_shape1.png	1	52	0	324.376442981871	324.476415534205	0.0999725523342931	stim04_sf1_pattern2_cont1_shape1.png	1	2	1	1	1	2	0	0	0	0	0	0	0	0	0	0	0	0	1	4
225.10400390625	0.0999725523342931	461013	225	2	stim02_sf1_pattern1_cont2_shape1.png	1	53	0	324.876424800725	324.976397353059	0.0999725523342931	stim02_sf1_pattern1_cont2_shape1.png	1	1	2	1	1	1	0	0	0	0	0	0	0	0	0	0	0	0	1	4
225.60400390625	0.0999904402360698	462037	226	6	stim06_sf1_pattern2_cont2_shape1.png	1	54	0	325.376427733168	325.476418173404	0.0999904402360698	stim06_sf1_pattern2_cont2_shape1.png	1	2	2	1	1	2	0	0	0	0	0	0	0	0	0	0	0	0	1	4
226.10400390625	0.0999722590895544	463061	227	15	stim15_sf2_pattern2_cont2_shape2.png	1	55	0	325.876422161527	325.976394420617	0.0999722590895544	stim15_sf2_pattern2_cont2_shape2.png	2	2	2	2	1	4	0	0	0	0	0	0	0	0	0	0	0	0	1	4
226.60400390625	0.100018005199672	464085	228	10	stim10_sf2_pattern1_cont2_shape1.png	1	56	0	326.376395476296	326.476413481496	0.100018005199672	stim10_sf2_pattern1_cont2_shape1.png	2	1	2	1	1	1	0	0	0	0	0	0	0	0	0	0	0	0	1	4
227.10400390625	0.0999734320666903	465109	229	14	stim14_sf2_pattern2_cont2_shape1.png	1	57	0	326.876407206068	326.976380638134	0.0999734320666903	stim14_sf2_pattern2_cont2_shape1.png	2	2	2	1	1	2	0	0	0	0	0	0	0	0	0	0	0	0	1	4
227.60400390625	0.100008328137847	466133	230	0	stim00_sf1_pattern1_cont1_shape1.png	1	58	0	327.376382866791	327.476391194929	0.100008328137847	stim00_sf1_pattern1_cont1_shape1.png	1	1	1	1	1	1	0	0	0	0	0	0	0	0	0	0	0	0	1	4
228.10400390625	0.0999772442428366	467157	231	3	stim03_sf1_pattern1_cont2_shape2.png	1	59	0	327.876379347859	327.976356592102	0.0999772442428366	stim03_sf1_pattern1_cont2_shape2.png	1	1	2	2	1	3	0	0	0	0	0	0	0	0	0	0	0	0	1	4
228.60400390625	0.0999963051217492	468181	232	7	stim07_sf1_pattern2_cont2_shape2.png	1	60	0	328.376361753202	328.476358058324	0.0999963051217492	stim07_sf1_pattern2_cont2_shape2.png	1	2	2	2	1	4	0	0	0	0	0	0	0	0	0	0	0	0	1	4
229.10400390625	0.099954077943039	469205	233	11	stim11_sf2_pattern1_cont2_shape2.png	1	61	0	328.876363805912	328.976317883855	0.099954077943039	stim11_sf2_pattern1_cont2_shape2.png	2	1	2	2	1	3	0	0	0	0	0	0	0	0	0	0	0	0	1	4
229.60400390625	0.099997478098885	470229	234	12	stim12_sf2_pattern2_cont1_shape1.png	1	62	0	329.376344451788	329.476341929887	0.099997478098885	stim12_sf2_pattern2_cont1_shape1.png	2	2	1	1	1	2	0	0	0	0	0	0	0	0	0	0	0	0	1	4
230.10400390625	0.0999895605036727	471253	235	1	stim01_sf1_pattern1_cont1_shape2.png	1	63	0	329.87633096255	329.976320523054	0.0999895605036727	stim01_sf1_pattern1_cont1_shape2.png	1	1	1	2	1	3	0	0	0	0	0	0	0	0	0	0	0	0	1	4
230.60400390625	0.0999921997026831	472277	236	8	stim08_sf2_pattern1_cont1_shape1.png	1	64	0	330.376322458465	330.476314658168	0.0999921997026831	stim08_sf2_pattern1_cont1_shape1.png	2	1	1	1	1	1	0	0	0	0	0	0	0	0	0	0	0	0	1	4
231.10400390625	0.0999740185543487	473301	237	9	stim09_sf2_pattern1_cont1_shape2.png	1	65	0	330.876309848962	330.976283867516	0.0999740185543487	stim09_sf2_pattern1_cont1_shape2.png	2	1	1	2	1	3	0	0	0	0	0	0	0	0	0	0	0	0	1	4
231.60400390625	0.099995425389352	474325	238	11	stim11_sf2_pattern1_cont2_shape2.png	1	66	0	331.376297239456	331.476292664845	0.099995425389352	stim11_sf2_pattern1_cont2_shape2.png	2	1	2	2	1	3	0	0	0	0	0	0	0	0	0	0	0	0	1	4
232.10400390625	0.099977830730495	475349	239	14	stim14_sf2_pattern2_cont2_shape1.png	1	67	0	331.87628316373	331.976260994461	0.099977830730495	stim14_sf2_pattern2_cont2_shape1.png	2	2	2	1	1	2	0	0	0	0	0	0	0	0	0	0	0	0	1	4
232.60400390625	0.0999936659227387	476373	240	10	stim10_sf2_pattern1_cont2_shape1.png	1	68	0	332.376273486669	332.476267152591	0.0999936659227387	stim10_sf2_pattern1_cont2_shape1.png	2	1	2	1	1	1	0	0	0	0	0	0	0	0	0	0	0	0	1	4
233.10400390625	0.099973725311429	477397	241	2	stim02_sf1_pattern1_cont2_shape1.png	1	69	0	332.876262343385	332.976236068696	0.099973725311429	stim02_sf1_pattern1_cont2_shape1.png	1	1	2	1	1	1	0	0	0	0	0	0	0	0	0	0	0	0	1	4
233.60400390625	0.0999951321446133	478421	242	1	stim01_sf1_pattern1_cont1_shape2.png	1	70	0	333.376250320369	333.476245452513	0.0999951321446133	stim01_sf1_pattern1_cont1_shape2.png	1	1	1	2	1	3	0	0	0	0	0	0	0	0	0	0	0	0	1	4
234.10400390625	0.0999605293181958	479445	243	5	stim05_sf1_pattern2_cont1_shape2.png	1	71	0	333.876235951398	333.976196480717	0.0999605293181958	stim05_sf1_pattern2_cont1_shape2.png	1	2	1	2	1	4	0	0	0	0	0	0	0	0	0	0	0	0	1	4
234.60400390625	0.0999957186340907	480469	244	4	stim04_sf1_pattern2_cont1_shape1.png	1	72	0	334.376226274337	334.476221992971	0.0999957186340907	stim04_sf1_pattern2_cont1_shape1.png	1	2	1	1	1	2	0	0	0	0	0	0	0	0	0	0	0	0	1	4
235.10400390625	0.0999772442428366	481493	245	15	stim15_sf2_pattern2_cont2_shape2.png	1	73	0	334.876212491854	334.976189736097	0.0999772442428366	stim15_sf2_pattern2_cont2_shape2.png	2	2	2	2	1	4	0	0	0	0	0	0	0	0	0	0	0	0	1	4
235.60400390625	0.100018884932069	482517	246	6	stim06_sf1_pattern2_cont2_shape1.png	1	74	0	335.376165866011	335.476184750944	0.100018884932069	stim06_sf1_pattern2_cont2_shape1.png	1	2	2	1	1	2	0	0	0	0	0	0	0	0	0	0	0	0	1	4
236.10400390625	0.0999619955400703	483541	247	13	stim13_sf2_pattern2_cont1_shape2.png	1	75	0	335.876200468838	335.976162464378	0.0999619955400703	stim13_sf2_pattern2_cont1_shape2.png	2	2	1	2	1	4	0	0	0	0	0	0	0	0	0	0	0	0	1	4
236.603515625	0.100002756496906	484564	248	3	stim03_sf1_pattern1_cont2_shape2.png	1	76	0	336.376150910552	336.476153667048	0.100002756496906	stim03_sf1_pattern1_cont2_shape2.png	1	1	2	2	1	3	0	0	0	0	0	0	0	0	0	0	0	0	1	4
237.103515625	0.0999807631742442	485588	249	7	stim07_sf1_pattern2_cont2_shape2.png	1	77	0	336.876133315895	336.976114079069	0.0999807631742442	stim07_sf1_pattern2_cont2_shape2.png	1	2	2	2	1	4	0	0	0	0	0	0	0	0	0	0	0	0	1	4
237.603515625	0.100027975506237	486612	250	0	stim00_sf1_pattern1_cont1_shape1.png	1	78	0	337.376092554938	337.476120530444	0.100027975506237	stim00_sf1_pattern1_cont1_shape1.png	1	1	1	1	1	1	0	0	0	0	0	0	0	0	0	0	0	0	1	4
238.103515625	0.0999801766847668	487636	251	12	stim12_sf2_pattern2_cont1_shape1.png	1	79	0	337.876097540091	337.976077716776	0.0999801766847668	stim12_sf2_pattern2_cont1_shape1.png	2	2	1	1	1	2	0	0	0	0	0	0	0	0	0	0	0	0	1	4
238.603515625	0.0994801951583213	488660	252	7	stim07_sf1_pattern2_cont2_shape2.png	1	80	0	338.376600747304	338.476080942462	0.0994801951583213	stim07_sf1_pattern2_cont2_shape2.png	1	2	2	2	1	4	0	0	0	0	0	0	0	0	0	0	0	0	1	4
239.103515625	0.0999921997026831	489684	253	15	stim15_sf2_pattern2_cont2_shape2.png	1	81	0	338.87606411024	338.976056309943	0.0999921997026831	stim15_sf2_pattern2_cont2_shape2.png	2	2	2	2	1	4	0	0	0	0	0	0	0	0	0	0	0	0	1	4
239.603515625	0.0999945456569549	490708	254	2	stim02_sf1_pattern1_cont2_shape1.png	1	82	0	339.376061764286	339.476056309943	0.0999945456569549	stim02_sf1_pattern1_cont2_shape1.png	1	1	2	1	1	1	0	0	0	0	0	0	0	0	0	0	0	0	1	4
240.103515625	0.10002416333009	491732	255	6	stim06_sf1_pattern2_cont2_shape1.png	1	83	0	339.876054139935	339.976078303265	0.10002416333009	stim06_sf1_pattern2_cont2_shape1.png	1	2	2	1	1	2	0	0	0	0	0	0	0	0	0	0	0	0	1	4
240.603515625	0.0999980645865435	492756	256	5	stim05_sf1_pattern2_cont1_shape2.png	1	84	0	340.376071148105	340.476069212691	0.0999980645865435	stim05_sf1_pattern2_cont1_shape2.png	1	2	1	2	1	4	0	0	0	0	0	0	0	0	0	0	0	0	1	4
241.103515625	0.0999713793553383	493780	257	0	stim00_sf1_pattern1_cont1_shape1.png	1	85	0	340.876068508906	340.976039888261	0.0999713793553383	stim00_sf1_pattern1_cont1_shape1.png	1	1	1	1	1	1	0	0	0	0	0	0	0	0	0	0	0	0	1	4
241.603515625	0.0999989443207596	494804	258	12	stim12_sf2_pattern2_cont1_shape1.png	1	86	0	341.376053553446	341.476052497766	0.0999989443207596	stim12_sf2_pattern2_cont1_shape1.png	2	2	1	1	1	2	0	0	0	0	0	0	0	0	0	0	0	0	1	4
242.103515625	0.0999658077162167	495828	259	3	stim03_sf1_pattern1_cont2_shape2.png	1	87	0	341.876057072377	341.976022880093	0.0999658077162167	stim03_sf1_pattern1_cont2_shape2.png	1	1	2	2	1	3	0	0	0	0	0	0	0	0	0	0	0	0	1	4
242.603515625	0.0999921997008641	496852	260	11	stim11_sf2_pattern1_cont2_shape2.png	1	88	0	342.376049154782	342.476041354483	0.0999921997008641	stim11_sf2_pattern1_cont2_shape2.png	2	1	2	2	1	3	0	0	0	0	0	0	0	0	0	0	0	0	1	4
243.103515625	0.0999523184764257	497876	261	14	stim14_sf2_pattern2_cont2_shape1.png	1	89	0	342.876033612834	342.975985931311	0.0999523184764257	stim14_sf2_pattern2_cont2_shape1.png	2	2	2	1	1	2	0	0	0	0	0	0	0	0	0	0	0	0	1	4
243.603515625	0.0999957186340907	498900	262	4	stim04_sf1_pattern2_cont1_shape1.png	1	90	0	343.376016018176	343.47601173681	0.0999957186340907	stim04_sf1_pattern2_cont1_shape1.png	1	2	1	1	1	2	0	0	0	0	0	0	0	0	0	0	0	0	1	4
244.103515625	0.0999845753503905	499924	263	8	stim08_sf2_pattern1_cont1_shape1.png	1	91	0	343.876004581649	343.975989156999	0.0999845753503905	stim08_sf2_pattern1_cont1_shape1.png	2	1	1	1	1	1	0	0	0	0	0	0	0	0	0	0	0	0	1	4
244.603515625	0.0999725523342931	500948	264	13	stim13_sf2_pattern2_cont1_shape2.png	1	92	0	344.375995784319	344.475968336654	0.0999725523342931	stim13_sf2_pattern2_cont1_shape2.png	2	2	1	2	1	4	0	0	0	0	0	0	0	0	0	0	0	0	1	4
245.103515625	0.0999511454992899	501972	265	1	stim01_sf1_pattern1_cont1_shape2.png	1	93	0	344.875981708594	344.975932854093	0.0999511454992899	stim01_sf1_pattern1_cont1_shape2.png	1	1	1	2	1	3	0	0	0	0	0	0	0	0	0	0	0	0	1	4
245.603515625	0.0999901469931501	502996	266	10	stim10_sf2_pattern1_cont2_shape1.png	1	94	0	345.375971151798	345.475961298791	0.0999901469931501	stim10_sf2_pattern1_cont2_shape1.png	2	1	2	1	1	1	0	0	0	0	0	0	0	0	0	0	0	0	1	4
246.103515625	0.0999804699295055	504020	267	9	stim09_sf2_pattern1_cont1_shape2.png	1	95	0	345.875951797676	345.975932267605	0.0999804699295055	stim09_sf2_pattern1_cont1_shape2.png	2	1	1	2	1	3	0	0	0	0	0	0	0	0	0	0	0	0	1	4
246.603515625	0.100000997032112	505044	268	14	stim14_sf2_pattern2_cont2_shape1.png	1	96	0	346.375944759811	346.475945756843	0.100000997032112	stim14_sf2_pattern2_cont2_shape1.png	2	2	2	1	1	2	0	0	0	0	0	0	0	0	0	0	0	0	1	4
247.103515625	0.099973725311429	506068	269	13	stim13_sf2_pattern2_cont1_shape2.png	1	97	0	346.875936255727	346.975909981038	0.099973725311429	stim13_sf2_pattern2_cont1_shape2.png	2	2	1	2	1	4	0	0	0	0	0	0	0	0	0	0	0	0	1	4
247.603515625	0.100002463252167	507092	270	2	stim02_sf1_pattern1_cont2_shape1.png	1	98	0	347.375919834047	347.475922297299	0.100002463252167	stim02_sf1_pattern1_cont2_shape1.png	1	1	2	1	1	1	0	0	0	0	0	0	0	0	0	0	0	0	1	4
248.103515625	0.0999769509980979	508116	271	8	stim08_sf2_pattern1_cont1_shape1.png	1	99	0	347.875905465076	347.975882416074	0.0999769509980979	stim08_sf2_pattern1_cont1_shape1.png	2	1	1	1	1	1	0	0	0	0	0	0	0	0	0	0	0	0	1	4
248.603515625	0.0999971848541463	509140	272	1	stim01_sf1_pattern1_cont1_shape2.png	1	100	0	348.375898133969	348.475895318823	0.0999971848541463	stim01_sf1_pattern1_cont1_shape2.png	1	1	1	2	1	3	0	0	0	0	0	0	0	0	0	0	0	0	1	4
249.103515625	0.0999804699313245	510164	273	12	stim12_sf2_pattern2_cont1_shape1.png	1	101	0	348.875883178509	348.97586364844	0.0999804699313245	stim12_sf2_pattern2_cont1_shape1.png	2	2	1	1	1	2	0	0	0	0	0	0	0	0	0	0	0	0	1	4
249.603515625	0.0999511454992899	511188	274	5	stim05_sf1_pattern2_cont1_shape2.png	1	102	0	349.375874381181	349.475825526681	0.0999511454992899	stim05_sf1_pattern2_cont1_shape2.png	1	2	1	2	1	4	0	0	0	0	0	0	0	0	0	0	0	0	1	4
250.103515625	0.0999549576754362	512212	275	6	stim06_sf1_pattern2_cont2_shape1.png	1	103	0	349.875858545989	349.975813503665	0.0999549576754362	stim06_sf1_pattern2_cont2_shape1.png	1	2	2	1	1	2	0	0	0	0	0	0	0	0	0	0	0	0	1	4
250.603515625	0.0999930794350803	513236	276	15	stim15_sf2_pattern2_cont2_shape2.png	1	104	0	350.375844470262	350.475837549697	0.0999930794350803	stim15_sf2_pattern2_cont2_shape2.png	2	2	2	2	1	4	0	0	0	0	0	0	0	0	0	0	0	0	1	4
251.103515625	0.0999980645883625	514260	277	3	stim03_sf1_pattern1_cont2_shape2.png	1	105	0	350.875832447246	350.975830511834	0.0999980645883625	stim03_sf1_pattern1_cont2_shape2.png	1	1	2	2	1	3	0	0	0	0	0	0	0	0	0	0	0	0	1	4
251.603515625	0.0999857483275264	515284	278	0	stim00_sf1_pattern1_cont1_shape1.png	1	106	0	351.375830394536	351.475816142864	0.0999857483275264	stim00_sf1_pattern1_cont1_shape1.png	1	1	1	1	1	1	0	0	0	0	0	0	0	0	0	0	0	0	1	4
252.103515625	0.0999751915333036	516308	279	11	stim11_sf2_pattern1_cont2_shape2.png	1	107	0	351.875810747168	351.975785938701	0.0999751915333036	stim11_sf2_pattern1_cont2_shape2.png	2	1	2	2	1	3	0	0	0	0	0	0	0	0	0	0	0	0	1	4
252.603515625	0.0999704996229411	517332	280	4	stim04_sf1_pattern2_cont1_shape1.png	1	108	0	352.375784941671	352.475755441294	0.0999704996229411	stim04_sf1_pattern2_cont1_shape1.png	1	2	1	1	1	2	0	0	0	0	0	0	0	0	0	0	0	0	1	4
253.103515625	0.0999444008830324	518356	281	9	stim09_sf2_pattern1_cont1_shape2.png	1	109	0	352.875781715982	352.975726116865	0.0999444008830324	stim09_sf2_pattern1_cont1_shape2.png	2	1	1	2	1	3	0	0	0	0	0	0	0	0	0	0	0	0	1	4
253.60302734375	0.0999748982885649	519379	282	10	stim10_sf2_pattern1_cont2_shape1.png	1	110	0	353.375749752355	353.475724650643	0.0999748982885649	stim10_sf2_pattern1_cont2_shape1.png	2	1	2	1	1	1	0	0	0	0	0	0	0	0	0	0	0	0	1	4
254.10302734375	0.0999617022953316	520403	283	7	stim07_sf1_pattern2_cont2_shape2.png	1	111	0	353.875738609071	353.975700311366	0.0999617022953316	stim07_sf1_pattern2_cont2_shape2.png	1	2	2	2	1	4	0	0	0	0	0	0	0	0	0	0	0	0	1	4
254.60302734375	0.0999543711877777	521427	284	9	stim09_sf2_pattern1_cont1_shape2.png	1	112	0	354.375728932009	354.475683303197	0.0999543711877777	stim09_sf2_pattern1_cont1_shape2.png	2	1	1	2	1	3	0	0	0	0	0	0	0	0	0	0	0	0	1	4
255.10302734375	0.100034426879574	522451	285	5	stim05_sf1_pattern2_cont1_shape2.png	1	113	0	354.875651222272	354.975685649151	0.100034426879574	stim05_sf1_pattern2_cont1_shape2.png	1	2	1	2	1	4	0	0	0	0	0	0	0	0	0	0	0	0	1	4
255.60302734375	0.100008034893108	523475	286	10	stim10_sf2_pattern1_cont2_shape1.png	1	114	0	355.375704006245	355.475712041138	0.100008034893108	stim10_sf2_pattern1_cont2_shape1.png	2	1	2	1	1	1	0	0	0	0	0	0	0	0	0	0	0	0	1	4
256.10302734375	0.0999866280599235	524499	287	3	stim03_sf1_pattern1_cont2_shape2.png	1	115	0	355.875688171052	355.975674799112	0.0999866280599235	stim03_sf1_pattern1_cont2_shape2.png	1	1	2	2	1	3	0	0	0	0	0	0	0	0	0	0	0	0	1	4
256.60302734375	0.0999927861903416	525523	288	2	stim02_sf1_pattern1_cont2_shape1.png	1	116	0	356.375689637274	356.475682423465	0.0999927861903416	stim02_sf1_pattern1_cont2_shape1.png	1	1	2	1	1	1	0	0	0	0	0	0	0	0	0	0	0	0	1	4
257.10302734375	0.0999549576754362	526547	289	7	stim07_sf1_pattern2_cont2_shape2.png	1	117	0	356.875695795405	356.97565075308	0.0999549576754362	stim07_sf1_pattern2_cont2_shape2.png	1	2	2	2	1	4	0	0	0	0	0	0	0	0	0	0	0	0	1	4
257.60302734375	0.0999980645883625	527571	290	11	stim11_sf2_pattern1_cont2_shape2.png	1	118	0	357.375683185899	357.475681250487	0.0999980645883625	stim11_sf2_pattern1_cont2_shape2.png	2	1	2	2	1	3	0	0	0	0	0	0	0	0	0	0	0	0	1	4
258.10302734375	0.0999760712657007	528595	291	1	stim01_sf1_pattern1_cont1_shape2.png	1	119	0	357.875675854792	357.975651926057	0.0999760712657007	stim01_sf1_pattern1_cont1_shape2.png	1	1	1	2	1	3	0	0	0	0	0	0	0	0	0	0	0	0	1	4
258.60302734375	0.100001290273212	529619	292	4	stim04_sf1_pattern2_cont1_shape1.png	1	120	0	358.375635680324	358.475636970597	0.100001290273212	stim04_sf1_pattern2_cont1_shape1.png	1	2	1	1	1	2	0	0	0	0	0	0	0	0	0	0	0	0	1	4
259.10302734375	0.0999760712657007	530643	293	6	stim06_sf1_pattern2_cont2_shape1.png	1	121	0	358.875643597919	358.975619669185	0.0999760712657007	stim06_sf1_pattern2_cont2_shape1.png	1	2	2	1	1	2	0	0	0	0	0	0	0	0	0	0	0	0	1	4
259.60302734375	0.100001876764509	531667	294	12	stim12_sf2_pattern2_cont1_shape1.png	1	122	0	359.375630988414	359.475632865178	0.100001876764509	stim12_sf2_pattern2_cont1_shape1.png	2	2	1	1	1	2	0	0	0	0	0	0	0	0	0	0	0	0	1	4
260.10302734375	0.099973725311429	532691	295	14	stim14_sf2_pattern2_cont2_shape1.png	1	123	0	359.87562043162	359.975594156931	0.099973725311429	stim14_sf2_pattern2_cont2_shape1.png	2	2	2	1	1	2	0	0	0	0	0	0	0	0	0	0	0	0	1	4
260.60302734375	0.099995425387533	533715	296	0	stim00_sf1_pattern1_cont1_shape1.png	1	124	0	360.375606649139	360.475602074526	0.099995425387533	stim00_sf1_pattern1_cont1_shape1.png	1	1	1	1	1	1	0	0	0	0	0	0	0	0	0	0	0	0	1	4
261.10302734375	0.0999347238193877	534739	297	8	stim08_sf2_pattern1_cont1_shape1.png	1	125	0	360.875597558565	360.975532282384	0.0999347238193877	stim08_sf2_pattern1_cont1_shape1.png	2	1	1	1	1	1	0	0	0	0	0	0	0	0	0	0	0	0	1	4
261.60302734375	0.0999977713418048	535763	298	13	stim13_sf2_pattern2_cont1_shape2.png	1	126	0	361.375581430129	361.475579201471	0.0999977713418048	stim13_sf2_pattern2_cont1_shape2.png	2	2	1	2	1	4	0	0	0	0	0	0	0	0	0	0	0	0	1	4
262.10302734375	0.099995425389352	536787	299	15	stim15_sf2_pattern2_cont2_shape2.png	1	127	0	361.875571459823	361.975566885212	0.099995425389352	stim15_sf2_pattern2_cont2_shape2.png	2	2	2	2	1	4	0	0	0	0	0	0	0	0	0	0	0	0	1	4
262.60302734375	0.100031494437644	537811	300	8	stim08_sf2_pattern1_cont1_shape1.png	1	128	0	362.375522488024	362.475553982462	0.100031494437644	stim08_sf2_pattern1_cont1_shape1.png	2	1	1	1	1	1	0	0	0	0	0	0	0	0	0	0	0	0	1	4
263.10302734375	0.100003636229303	538835	301	13	stim13_sf2_pattern2_cont1_shape2.png	1	129	0	362.875521021804	362.975524658033	0.100003636229303	stim13_sf2_pattern2_cont1_shape2.png	2	2	1	2	1	4	0	0	0	0	0	0	0	0	0	0	0	0	1	4
263.60302734375	0.100000997030293	539859	302	4	stim04_sf1_pattern2_cont1_shape1.png	1	130	0	363.375536563752	363.475537560782	0.100000997030293	stim04_sf1_pattern2_cont1_shape1.png	1	2	1	1	1	2	0	0	0	0	0	0	0	0	0	0	0	0	1	4
264.10302734375	0.0999617022953316	540883	303	15	stim15_sf2_pattern2_cont2_shape2.png	1	131	0	363.875522781269	363.975484483564	0.0999617022953316	stim15_sf2_pattern2_cont2_shape2.png	2	2	2	2	1	4	0	0	0	0	0	0	0	0	0	0	0	0	1	4
264.60302734375	0.0999960118788294	541907	304	9	stim09_sf2_pattern1_cont1_shape2.png	1	132	0	364.375511637985	364.475507649864	0.0999960118788294	stim09_sf2_pattern1_cont1_shape2.png	2	1	1	2	1	3	0	0	0	0	0	0	0	0	0	0	0	0	1	4
265.10302734375	0.0999960118770105	542931	305	0	stim00_sf1_pattern1_cont1_shape1.png	1	133	0	364.875499908214	364.975495920091	0.0999960118770105	stim00_sf1_pattern1_cont1_shape1.png	1	1	1	1	1	1	0	0	0	0	0	0	0	0	0	0	0	0	1	4
265.60302734375	0.099997478098885	543955	306	14	stim14_sf2_pattern2_cont2_shape1.png	1	134	0	365.375485245999	365.475482724098	0.099997478098885	stim14_sf2_pattern2_cont2_shape1.png	2	2	2	1	1	2	0	0	0	0	0	0	0	0	0	0	0	0	1	4
266.10302734375	0.0999731388219516	544979	307	5	stim05_sf1_pattern2_cont1_shape2.png	1	135	0	365.875479381113	365.975452519935	0.0999731388219516	stim05_sf1_pattern2_cont1_shape2.png	1	2	1	2	1	4	0	0	0	0	0	0	0	0	0	0	0	0	1	4
266.60302734375	0.0999921997026831	546003	308	3	stim03_sf1_pattern1_cont2_shape2.png	1	136	0	366.37546618512	366.475458384823	0.0999921997026831	stim03_sf1_pattern1_cont2_shape2.png	1	1	2	2	1	3	0	0	0	0	0	0	0	0	0	0	0	0	1	4
267.10302734375	0.0999584766068438	547027	309	10	stim10_sf2_pattern1_cont2_shape1.png	1	137	0	366.87545592157	366.975414398177	0.0999584766068438	stim10_sf2_pattern1_cont2_shape1.png	2	1	2	1	1	1	0	0	0	0	0	0	0	0	0	0	0	0	1	4
267.60302734375	0.100005102451178	548051	310	8	stim08_sf2_pattern1_cont1_shape1.png	1	138	1	367.375429529582	367.475434632033	0.100005102451178	stim08_sf2_pattern1_cont1_shape1.png	2	1	1	1	1	1	0	0	0	0	0	0	0	0	0	0	0	0	1	4
268.10302734375	0.100006861915972	549075	311	8	stim08_sf2_pattern1_cont1_shape1.png	1	139	1	367.875379971298	367.975386833214	0.100006861915972	stim08_sf2_pattern1_cont1_shape1.png	2	1	1	1	1	1	0	0	0	0	0	0	0	0	0	0	0	0	1	4
268.60302734375	0.0999875077923207	550099	312	1	stim01_sf1_pattern1_cont1_shape2.png	1	140	2	368.375406070039	368.475393577832	0.0999875077923207	stim01_sf1_pattern1_cont1_shape2.png	1	1	1	2	1	3	0	0	0	0	0	0	0	0	0	0	0	0	1	4
269.10302734375	0.0999816429066414	551123	313	4	stim04_sf1_pattern2_cont1_shape1.png	1	141	2	368.875384076717	368.975365719623	0.0999816429066414	stim04_sf1_pattern2_cont1_shape1.png	1	2	1	1	1	2	0	0	0	0	0	0	0	0	0	0	0	0	1	4
269.60302734375	0.100026216039623	552147	314	7	stim07_sf1_pattern2_cont2_shape2.png	1	142	0	369.375359150952	369.475385366992	0.100026216039623	stim07_sf1_pattern2_cont2_shape2.png	1	2	2	2	1	4	0	0	0	0	0	0	0	0	0	0	0	0	1	4
270.10302734375	0.100008328139666	553171	315	1	stim01_sf1_pattern1_cont1_shape2.png	1	143	0	369.875335398163	369.975343726303	0.100008328139666	stim01_sf1_pattern1_cont1_shape2.png	1	1	1	2	1	3	0	0	0	0	0	0	0	0	0	0	0	0	1	4
270.60302734375	0.099969619890544	554195	316	11	stim11_sf2_pattern1_cont2_shape2.png	1	144	0	370.375349180646	370.475318800536	0.099969619890544	stim11_sf2_pattern1_cont2_shape2.png	2	1	2	2	1	3	0	0	0	0	0	0	0	0	0	0	0	0	1	4
271.1025390625	0.0999658077162167	555218	317	12	stim12_sf2_pattern2_cont1_shape1.png	1	145	0	370.875335691408	370.975301499124	0.0999658077162167	stim12_sf2_pattern2_cont1_shape1.png	2	2	1	1	1	2	0	0	0	0	0	0	0	0	0	0	0	0	1	4
271.6025390625	0.10001008760446	556242	318	6	stim06_sf1_pattern2_cont2_shape1.png	1	146	0	371.375316630529	371.475326718133	0.10001008760446	stim06_sf1_pattern2_cont2_shape1.png	1	2	2	1	1	2	0	0	0	0	0	0	0	0	0	0	0	0	1	4
272.1025390625	0.100018005199672	557266	319	2	stim02_sf1_pattern1_cont2_shape1.png	1	147	0	371.875299035872	371.975317041071	0.100018005199672	stim02_sf1_pattern1_cont2_shape1.png	1	1	2	1	1	1	0	0	0	0	0	0	0	0	0	0	0	0	1	4
272.6025390625	0.100001876764509	558290	320	5	stim05_sf1_pattern2_cont1_shape2.png	1	148	0	372.375307833199	372.475309709964	0.100001876764509	stim05_sf1_pattern2_cont1_shape2.png	1	2	1	2	1	4	0	0	0	0	0	0	0	0	0	0	0	0	1	4
273.1025390625	0.0999746050438262	559314	321	11	stim11_sf2_pattern1_cont2_shape2.png	1	149	0	372.875314577819	372.975289182863	0.0999746050438262	stim11_sf2_pattern1_cont2_shape2.png	2	1	2	2	1	3	0	0	0	0	0	0	0	0	0	0	0	0	1	4
273.6025390625	0.0999951321446133	560338	322	4	stim04_sf1_pattern2_cont1_shape1.png	1	150	0	373.375306073734	373.475301205879	0.0999951321446133	stim04_sf1_pattern2_cont1_shape1.png	1	2	1	1	1	2	0	0	0	0	0	0	0	0	0	0	0	0	1	4
274.1025390625	0.099995425387533	561362	323	7	stim07_sf1_pattern2_cont2_shape2.png	1	151	0	373.875284666901	373.975280092289	0.099995425387533	stim07_sf1_pattern2_cont2_shape2.png	1	2	2	2	1	4	0	0	0	0	0	0	0	0	0	0	0	0	1	4
274.6025390625	0.100020057911024	562386	324	12	stim12_sf2_pattern2_cont1_shape1.png	1	152	0	374.375250943805	374.475271001716	0.100020057911024	stim12_sf2_pattern2_cont1_shape1.png	2	2	1	1	1	2	0	0	0	0	0	0	0	0	0	0	0	0	1	4
275.1025390625	0.0999687401581468	563410	325	14	stim14_sf2_pattern2_cont2_shape1.png	1	153	0	374.875255342471	374.975224082629	0.0999687401581468	stim14_sf2_pattern2_cont2_shape1.png	2	2	2	1	1	2	0	0	0	0	0	0	0	0	0	0	0	0	1	4
275.6025390625	0.0999971848541463	564434	326	1	stim01_sf1_pattern1_cont1_shape2.png	1	154	0	375.375249184341	375.475246369195	0.0999971848541463	stim01_sf1_pattern1_cont1_shape2.png	1	1	1	2	1	3	0	0	0	0	0	0	0	0	0	0	0	0	1	4
276.1025390625	0.0999957186322717	565458	327	6	stim06_sf1_pattern2_cont2_shape1.png	1	155	0	375.875216634224	375.975212352856	0.0999957186322717	stim06_sf1_pattern2_cont2_shape1.png	1	2	2	1	1	2	0	0	0	0	0	0	0	0	0	0	0	0	1	4
276.6025390625	0.099995425389352	566482	328	9	stim09_sf2_pattern1_cont1_shape2.png	1	156	0	376.375226018041	376.47522144343	0.099995425389352	stim09_sf2_pattern1_cont1_shape2.png	2	1	1	2	1	3	0	0	0	0	0	0	0	0	0	0	0	0	1	4
277.1025390625	0.099987214547582	567506	329	3	stim03_sf1_pattern1_cont2_shape2.png	1	157	0	376.875213408537	376.975200623085	0.099987214547582	stim03_sf1_pattern1_cont2_shape2.png	1	1	2	2	1	3	0	0	0	0	0	0	0	0	0	0	0	0	1	4
277.6025390625	0.0999971848541463	568530	330	2	stim02_sf1_pattern1_cont2_shape1.png	1	158	0	377.375203144986	377.47520032984	0.0999971848541463	stim02_sf1_pattern1_cont2_shape1.png	1	1	2	1	1	1	0	0	0	0	0	0	0	0	0	0	0	0	1	4
278.1025390625	0.0999948389016936	569554	331	0	stim00_sf1_pattern1_cont1_shape1.png	1	159	0	377.875190828725	377.975185667627	0.0999948389016936	stim00_sf1_pattern1_cont1_shape1.png	1	1	1	1	1	1	0	0	0	0	0	0	0	0	0	0	0	0	1	4
278.6025390625	0.0999960118788294	570578	332	13	stim13_sf2_pattern2_cont1_shape2.png	1	160	0	378.375179978686	378.475175990565	0.0999960118788294	stim13_sf2_pattern2_cont1_shape2.png	2	2	1	2	1	4	0	0	0	0	0	0	0	0	0	0	0	0	1	4
279.1025390625	0.0999740185561677	571602	333	10	stim10_sf2_pattern1_cont2_shape1.png	1	161	0	378.875166782693	378.975140801249	0.0999740185561677	stim10_sf2_pattern1_cont2_shape1.png	2	1	2	1	1	1	0	0	0	0	0	0	0	0	0	0	0	0	1	4
279.6025390625	0.100032374170041	572626	334	8	stim08_sf2_pattern1_cont1_shape1.png	1	162	0	379.375156225899	379.475188600069	0.100032374170041	stim08_sf2_pattern1_cont1_shape1.png	2	1	1	1	1	1	0	0	0	0	0	0	0	0	0	0	0	0	1	4
280.1025390625	0.0999945456569549	573650	335	15	stim15_sf2_pattern2_cont2_shape2.png	1	163	0	379.875142736661	379.975137282318	0.0999945456569549	stim15_sf2_pattern2_cont2_shape2.png	2	2	2	2	1	4	0	0	0	0	0	0	0	0	0	0	0	0	1	4
302.33544921875	0.100020644398683	619183	336	11	stim11_sf2_pattern1_cont2_shape2.png	2	0	0	402.107909795708	402.207930440107	0.100020644398683	stim11_sf2_pattern1_cont2_shape2.png	2	1	2	2	1	3	0	0	0	0	0	0	0	0	0	0	0	0	1	4
302.83544921875	0.0999916132132057	620207	337	3	stim03_sf1_pattern1_cont2_shape2.png	2	1	0	402.607936774184	402.707928387397	0.0999916132132057	stim03_sf1_pattern1_cont2_shape2.png	1	1	2	2	1	3	0	0	0	0	0	0	0	0	0	0	0	0	1	4
303.3349609375	0.0999878010370594	621230	338	2	stim02_sf1_pattern1_cont2_shape1.png	2	2	0	403.10791742006	403.207905221097	0.0999878010370594	stim02_sf1_pattern1_cont2_shape1.png	1	1	2	1	1	1	0	0	0	0	0	0	0	0	0	0	0	0	1	4
303.8349609375	0.10001008760446	622254	339	9	stim09_sf2_pattern1_cont1_shape2.png	2	3	0	403.607909209219	403.707919296823	0.10001008760446	stim09_sf2_pattern1_cont1_shape2.png	2	1	1	2	1	3	0	0	0	0	0	0	0	0	0	0	0	0	1	4
304.3349609375	0.099975778020962	623278	340	10	stim10_sf2_pattern1_cont2_shape1.png	2	4	0	404.107904810555	404.207880588576	0.099975778020962	stim10_sf2_pattern1_cont2_shape1.png	2	1	2	1	1	1	0	0	0	0	0	0	0	0	0	0	0	0	1	4
304.8349609375	0.100000410542634	624302	341	0	stim00_sf1_pattern1_cont1_shape1.png	2	5	0	404.607862290131	404.707862700674	0.100000410542634	stim00_sf1_pattern1_cont1_shape1.png	1	1	1	1	1	1	0	0	0	0	0	0	0	0	0	0	0	0	1	4
305.3349609375	0.0999746050438262	625326	342	8	stim08_sf2_pattern1_cont1_shape1.png	2	6	0	405.107849680628	405.207824285671	0.0999746050438262	stim08_sf2_pattern1_cont1_shape1.png	2	1	1	1	1	1	0	0	0	0	0	0	0	0	0	0	0	0	1	4
305.8349609375	0.0999927861903416	626350	343	5	stim05_sf1_pattern2_cont1_shape2.png	2	7	0	405.607842056275	405.707834842466	0.0999927861903416	stim05_sf1_pattern2_cont1_shape2.png	1	2	1	2	1	4	0	0	0	0	0	0	0	0	0	0	0	0	1	4
306.3349609375	0.0999866280617425	627374	344	12	stim12_sf2_pattern2_cont1_shape1.png	2	8	0	406.107828273793	406.207814901854	0.0999866280617425	stim12_sf2_pattern2_cont1_shape1.png	2	2	1	1	1	2	0	0	0	0	0	0	0	0	0	0	0	0	1	4
306.8349609375	0.0999936659245577	628398	345	4	stim04_sf1_pattern2_cont1_shape1.png	2	9	0	406.607824754861	406.707818420786	0.0999936659245577	stim04_sf1_pattern2_cont1_shape1.png	1	2	1	1	1	2	0	0	0	0	0	0	0	0	0	0	0	0	1	4
307.3349609375	0.100003049739826	629422	346	1	stim01_sf1_pattern1_cont1_shape2.png	2	10	0	407.107800122341	407.207803172081	0.100003049739826	stim01_sf1_pattern1_cont1_shape2.png	1	1	1	2	1	3	0	0	0	0	0	0	0	0	0	0	0	0	1	4
307.8349609375	0.100025922794885	630446	347	13	stim13_sf2_pattern2_cont1_shape2.png	2	11	0	407.607791618257	407.707817541052	0.100025922794885	stim13_sf2_pattern2_cont1_shape2.png	2	2	1	2	1	4	0	0	0	0	0	0	0	0	0	0	0	0	1	4
308.3349609375	0.100007741650188	631470	348	7	stim07_sf1_pattern2_cont2_shape2.png	2	12	0	408.107781354705	408.207789096356	0.100007741650188	stim07_sf1_pattern2_cont2_shape2.png	1	2	2	2	1	4	0	0	0	0	0	0	0	0	0	0	0	0	1	4
308.8349609375	0.0999971848541463	632494	349	6	stim06_sf1_pattern2_cont2_shape1.png	2	13	0	408.607798949364	408.707796134218	0.0999971848541463	stim06_sf1_pattern2_cont2_shape1.png	1	2	2	1	1	2	0	0	0	0	0	0	0	0	0	0	0	0	1	4
309.3349609375	0.100010087602641	633518	350	15	stim15_sf2_pattern2_cont2_shape2.png	2	14	0	409.107772557378	409.20778264498	0.100010087602641	stim15_sf2_pattern2_cont2_shape2.png	2	2	2	2	1	4	0	0	0	0	0	0	0	0	0	0	0	0	1	4
309.8349609375	0.0999963051217492	634542	351	14	stim14_sf2_pattern2_cont2_shape1.png	2	15	0	409.607768451957	409.707764757079	0.0999963051217492	stim14_sf2_pattern2_cont2_shape1.png	2	2	2	1	1	2	0	0	0	0	0	0	0	0	0	0	0	0	1	4
310.3349609375	0.0999910267255473	635566	352	5	stim05_sf1_pattern2_cont1_shape2.png	2	16	0	410.107757601918	410.207748628643	0.0999910267255473	stim05_sf1_pattern2_cont1_shape2.png	1	2	1	2	1	4	0	0	0	0	0	0	0	0	0	0	0	0	1	4
310.8349609375	0.0999963051217492	636590	353	11	stim11_sf2_pattern1_cont2_shape2.png	2	17	0	410.607753203254	410.707749508376	0.0999963051217492	stim11_sf2_pattern1_cont2_shape2.png	2	1	2	2	1	3	0	0	0	0	0	0	0	0	0	0	0	0	1	4
311.3349609375	0.0999834023732546	637614	354	2	stim02_sf1_pattern1_cont2_shape1.png	2	18	0	411.107745285657	411.20772868803	0.0999834023732546	stim02_sf1_pattern1_cont2_shape1.png	1	1	2	1	1	1	0	0	0	0	0	0	0	0	0	0	0	0	1	4
311.8349609375	0.0999989443207596	638638	355	0	stim00_sf1_pattern1_cont1_shape1.png	2	19	0	411.607717427449	411.707716371769	0.0999989443207596	stim00_sf1_pattern1_cont1_shape1.png	1	1	1	1	1	1	0	0	0	0	0	0	0	0	0	0	0	0	1	4
312.3349609375	0.100012726801651	639662	356	10	stim10_sf2_pattern1_cont2_shape1.png	2	20	1	412.107691328707	412.207704055509	0.100012726801651	stim10_sf2_pattern1_cont2_shape1.png	2	1	2	1	1	1	0	0	0	0	0	0	0	0	0	0	0	0	1	4
312.8349609375	0.0999960118770105	640686	357	10	stim10_sf2_pattern1_cont2_shape1.png	2	21	1	412.607695434128	412.707691446005	0.0999960118770105	stim10_sf2_pattern1_cont2_shape1.png	2	1	2	1	1	1	0	0	0	0	0	0	0	0	0	0	0	0	1	4
313.3349609375	0.0999998240531568	641710	358	4	stim04_sf1_pattern2_cont1_shape1.png	2	22	2	413.107671094851	413.207670918904	0.0999998240531568	stim04_sf1_pattern2_cont1_shape1.png	1	2	1	1	1	2	0	0	0	0	0	0	0	0	0	0	0	0	1	4
313.8349609375	0.0999895605036727	642734	359	5	stim05_sf1_pattern2_cont1_shape2.png	2	23	2	413.607676666492	413.707666226996	0.0999895605036727	stim05_sf1_pattern2_cont1_shape2.png	1	2	1	2	1	4	0	0	0	0	0	0	0	0	0	0	0	0	1	4
314.3349609375	0.10000158351977	643758	360	14	stim14_sf2_pattern2_cont2_shape1.png	2	24	0	414.107644116375	414.207645699895	0.10000158351977	stim14_sf2_pattern2_cont2_shape1.png	2	2	2	1	1	2	0	0	0	0	0	0	0	0	0	0	0	0	1	4
314.8349609375	0.0999983578312822	644782	361	8	stim08_sf2_pattern1_cont1_shape1.png	2	25	0	414.607647048819	414.70764540665	0.0999983578312822	stim08_sf2_pattern1_cont1_shape1.png	2	1	1	1	1	1	0	0	0	0	0	0	0	0	0	0	0	0	1	4
315.3349609375	0.0999992375654983	645806	362	12	stim12_sf2_pattern2_cont1_shape1.png	2	26	0	415.107622709542	415.207621947107	0.0999992375654983	stim12_sf2_pattern2_cont1_shape1.png	2	2	1	1	1	2	0	0	0	0	0	0	0	0	0	0	0	0	1	4
315.8349609375	0.0999989443207596	646830	363	15	stim15_sf2_pattern2_cont2_shape2.png	2	27	0	415.607623296029	415.70762224035	0.0999989443207596	stim15_sf2_pattern2_cont2_shape2.png	2	2	2	2	1	4	0	0	0	0	0	0	0	0	0	0	0	0	1	4
316.3349609375	0.100013899780606	647854	364	3	stim03_sf1_pattern1_cont2_shape2.png	2	28	0	416.107596904043	416.207610803824	0.100013899780606	stim03_sf1_pattern1_cont2_shape2.png	1	1	2	2	1	3	0	0	0	0	0	0	0	0	0	0	0	0	1	4
316.8349609375	0.0999968916094076	648878	365	7	stim07_sf1_pattern2_cont2_shape2.png	2	29	0	416.607598956754	416.707595848364	0.0999968916094076	stim07_sf1_pattern2_cont2_shape2.png	1	2	2	2	1	4	0	0	0	0	0	0	0	0	0	0	0	0	1	4
317.3349609375	0.099999530810237	649902	366	9	stim09_sf2_pattern1_cont1_shape2.png	2	30	0	417.107570218812	417.207569749622	0.099999530810237	stim09_sf2_pattern1_cont1_shape2.png	2	1	1	2	1	3	0	0	0	0	0	0	0	0	0	0	0	0	1	4
317.8349609375	0.100014779513003	650926	367	1	stim01_sf1_pattern1_cont1_shape2.png	2	31	0	417.607559662018	417.707574441531	0.100014779513003	stim01_sf1_pattern1_cont1_shape2.png	1	1	1	2	1	3	0	0	0	0	0	0	0	0	0	0	0	0	1	4
318.3349609375	0.0999839888609131	651950	368	10	stim10_sf2_pattern1_cont2_shape1.png	2	32	0	418.107564060683	418.207548049544	0.0999839888609131	stim10_sf2_pattern1_cont2_shape1.png	2	1	2	1	1	1	0	0	0	0	0	0	0	0	0	0	0	0	1	4
318.8349609375	0.100004222716962	652974	369	6	stim06_sf1_pattern2_cont2_shape1.png	2	33	0	418.607550571445	418.707554794162	0.100004222716962	stim06_sf1_pattern2_cont2_shape1.png	1	2	2	1	1	2	0	0	0	0	0	0	0	0	0	0	0	0	1	4
319.3349609375	0.100018298442592	653998	370	13	stim13_sf2_pattern2_cont1_shape2.png	2	34	0	419.107526525413	419.207544823856	0.100018298442592	stim13_sf2_pattern2_cont1_shape2.png	2	2	1	2	1	4	0	0	0	0	0	0	0	0	0	0	0	0	1	4
319.8349609375	0.0999924929456029	655022	371	4	stim04_sf1_pattern2_cont1_shape1.png	2	35	0	419.607510103731	419.707502596677	0.0999924929456029	stim04_sf1_pattern2_cont1_shape1.png	1	2	1	1	1	2	0	0	0	0	0	0	0	0	0	0	0	0	1	4
320.3349609375	0.0999916132113867	656046	372	15	stim15_sf2_pattern2_cont2_shape2.png	2	36	0	420.107490456365	420.207482069576	0.0999916132113867	stim15_sf2_pattern2_cont2_shape2.png	2	2	2	2	1	4	0	0	0	0	0	0	0	0	0	0	0	0	1	4
320.83447265625	0.100003049741645	657069	373	12	stim12_sf2_pattern2_cont1_shape1.png	2	37	0	420.607484591477	420.707487641219	0.100003049741645	stim12_sf2_pattern2_cont1_shape1.png	2	2	1	1	1	2	0	0	0	0	0	0	0	0	0	0	0	0	1	4
321.33447265625	0.100002170007429	658093	374	9	stim09_sf2_pattern1_cont1_shape2.png	2	38	0	421.107459079225	421.207461249232	0.100002170007429	stim09_sf2_pattern1_cont1_shape2.png	2	1	1	2	1	3	0	0	0	0	0	0	0	0	0	0	0	0	1	4
321.83447265625	0.100018591687331	659117	375	11	stim11_sf2_pattern1_cont2_shape2.png	2	39	0	421.607457613003	421.70747620469	0.100018591687331	stim11_sf2_pattern1_cont2_shape2.png	2	1	2	2	1	3	0	0	0	0	0	0	0	0	0	0	0	0	1	4
322.33447265625	0.099997478098885	660141	376	8	stim08_sf2_pattern1_cont1_shape1.png	2	40	0	422.107450281896	422.207447759994	0.099997478098885	stim08_sf2_pattern1_cont1_shape1.png	2	1	1	1	1	1	0	0	0	0	0	0	0	0	0	0	0	0	1	4
322.83447265625	0.0999957186322717	661165	377	10	stim10_sf2_pattern1_cont2_shape1.png	2	41	0	422.607444123765	422.707439842397	0.0999957186322717	stim10_sf2_pattern1_cont2_shape1.png	2	1	2	1	1	1	0	0	0	0	0	0	0	0	0	0	0	0	1	4
323.33447265625	0.0999605293181958	662189	378	6	stim06_sf1_pattern2_cont2_shape1.png	2	42	0	423.107436792658	423.207397321976	0.0999605293181958	stim06_sf1_pattern2_cont2_shape1.png	1	2	2	1	1	2	0	0	0	0	0	0	0	0	0	0	0	0	1	4
323.83447265625	0.100009207870244	663213	379	2	stim02_sf1_pattern1_cont2_shape1.png	2	43	0	423.607415679069	423.707424886939	0.100009207870244	stim02_sf1_pattern1_cont2_shape1.png	1	1	2	1	1	1	0	0	0	0	0	0	0	0	0	0	0	0	1	4
324.33447265625	0.0999790037076309	664237	380	1	stim01_sf1_pattern1_cont1_shape2.png	2	44	0	424.107437965635	424.207416969342	0.0999790037076309	stim01_sf1_pattern1_cont1_shape2.png	1	1	1	2	1	3	0	0	0	0	0	0	0	0	0	0	0	0	1	4
324.83447265625	0.099989267258934	665261	381	7	stim07_sf1_pattern2_cont2_shape2.png	2	45	0	424.607423010175	424.707412277434	0.099989267258934	stim07_sf1_pattern2_cont2_shape2.png	1	2	2	2	1	4	0	0	0	0	0	0	0	0	0	0	0	0	1	4
325.33447265625	0.100011260579777	666285	382	0	stim00_sf1_pattern1_cont1_shape1.png	2	46	0	425.107385181662	425.207396442242	0.100011260579777	stim00_sf1_pattern1_cont1_shape1.png	1	1	1	1	1	1	0	0	0	0	0	0	0	0	0	0	0	0	1	4
325.83447265625	0.0999977713418048	667309	383	4	stim04_sf1_pattern2_cont1_shape1.png	2	47	0	425.607385474907	425.707383246248	0.0999977713418048	stim04_sf1_pattern2_cont1_shape1.png	1	2	1	1	1	2	0	0	0	0	0	0	0	0	0	0	0	0	1	4
326.33447265625	0.100005395694097	668333	384	13	stim13_sf2_pattern2_cont1_shape2.png	2	48	0	426.107365827538	426.207371223232	0.100005395694097	stim13_sf2_pattern2_cont1_shape2.png	2	2	1	2	1	4	0	0	0	0	0	0	0	0	0	0	0	0	1	4
326.83447265625	0.0999795901971083	669357	385	14	stim14_sf2_pattern2_cont2_shape1.png	2	49	0	426.607361722117	426.707341312314	0.0999795901971083	stim14_sf2_pattern2_cont2_shape1.png	2	2	2	1	1	2	0	0	0	0	0	0	0	0	0	0	0	0	1	4
327.33447265625	0.100000703787373	670381	386	3	stim03_sf1_pattern1_cont2_shape2.png	2	50	0	427.107338555817	427.207339259605	0.100000703787373	stim03_sf1_pattern1_cont2_shape2.png	1	1	2	2	1	3	0	0	0	0	0	0	0	0	0	0	0	0	1	4
327.83447265625	0.0999980645883625	671405	387	5	stim05_sf1_pattern2_cont1_shape2.png	2	51	0	427.60733738284	427.707335447429	0.0999980645883625	stim05_sf1_pattern2_cont1_shape2.png	1	2	1	2	1	4	0	0	0	0	0	0	0	0	0	0	0	0	1	4
328.33447265625	0.0999983578331012	672429	388	3	stim03_sf1_pattern1_cont2_shape2.png	2	52	0	428.107330051733	428.207328409566	0.0999983578331012	stim03_sf1_pattern1_cont2_shape2.png	1	1	2	2	1	3	0	0	0	0	0	0	0	0	0	0	0	0	1	4
328.83447265625	0.0999965983664879	673453	389	2	stim02_sf1_pattern1_cont2_shape1.png	2	53	0	428.607314509785	428.707311108152	0.0999965983664879	stim02_sf1_pattern1_cont2_shape1.png	1	1	2	1	1	1	0	0	0	0	0	0	0	0	0	0	0	0	1	4
329.33447265625	0.100003049741645	674477	390	15	stim15_sf2_pattern2_cont2_shape2.png	2	54	0	429.107289584021	429.207292633762	0.100003049741645	stim15_sf2_pattern2_cont2_shape2.png	2	2	2	2	1	4	0	0	0	0	0	0	0	0	0	0	0	0	1	4
329.83447265625	0.0999963051217492	675501	391	14	stim14_sf2_pattern2_cont2_shape1.png	2	55	0	429.607289584021	429.707285889142	0.0999963051217492	stim14_sf2_pattern2_cont2_shape1.png	2	2	2	1	1	2	0	0	0	0	0	0	0	0	0	0	0	0	1	4
330.33447265625	0.0999983578312822	676525	392	1	stim01_sf1_pattern1_cont1_shape2.png	2	56	0	430.107262312302	430.207260670133	0.0999983578312822	stim01_sf1_pattern1_cont1_shape2.png	1	1	1	2	1	3	0	0	0	0	0	0	0	0	0	0	0	0	1	4
330.83447265625	0.0999951321446133	677549	393	0	stim00_sf1_pattern1_cont1_shape1.png	2	57	0	430.607269350165	430.707264482309	0.0999951321446133	stim00_sf1_pattern1_cont1_shape1.png	1	1	1	1	1	1	0	0	0	0	0	0	0	0	0	0	0	0	1	4
331.33447265625	0.100007155160711	678573	394	12	stim12_sf2_pattern2_cont1_shape1.png	2	58	0	431.107240905467	431.207248060628	0.100007155160711	stim12_sf2_pattern2_cont1_shape1.png	2	2	1	1	1	2	0	0	0	0	0	0	0	0	0	0	0	0	1	4
331.83447265625	0.0999977713436238	679597	395	11	stim11_sf2_pattern1_cont2_shape2.png	2	59	0	431.60724589062	431.707243661964	0.0999977713436238	stim11_sf2_pattern1_cont2_shape2.png	2	1	2	2	1	3	0	0	0	0	0	0	0	0	0	0	0	0	1	4
332.33447265625	0.0999924929456029	680621	396	7	stim07_sf1_pattern2_cont2_shape2.png	2	60	0	432.107225656764	432.20721814971	0.0999924929456029	stim07_sf1_pattern2_cont2_shape2.png	1	2	2	2	1	4	0	0	0	0	0	0	0	0	0	0	0	0	1	4
332.83447265625	0.0999760712657007	681645	397	4	stim04_sf1_pattern2_cont1_shape1.png	2	61	0	432.607221551343	432.707197622609	0.0999760712657007	stim04_sf1_pattern2_cont1_shape1.png	1	2	1	1	1	2	0	0	0	0	0	0	0	0	0	0	0	0	1	4
333.33447265625	0.10001859168915	682669	398	10	stim10_sf2_pattern1_cont2_shape1.png	2	62	0	433.107190174203	433.207208765893	0.10001859168915	stim10_sf2_pattern1_cont2_shape1.png	2	1	2	1	1	1	0	0	0	0	0	0	0	0	0	0	0	0	1	4
333.83447265625	0.0999971848541463	683693	399	9	stim09_sf2_pattern1_cont1_shape2.png	2	63	0	433.607203076954	433.707200261808	0.0999971848541463	stim09_sf2_pattern1_cont1_shape2.png	2	1	1	2	1	3	0	0	0	0	0	0	0	0	0	0	0	0	1	4
334.33447265625	0.0999895605018537	684717	400	13	stim13_sf2_pattern2_cont1_shape2.png	2	64	0	434.107182549853	434.207172110355	0.0999895605018537	stim13_sf2_pattern2_cont1_shape2.png	2	2	1	2	1	4	0	0	0	0	0	0	0	0	0	0	0	0	1	4
334.83447265625	0.0999602360734571	685741	401	6	stim06_sf1_pattern2_cont2_shape1.png	2	65	0	434.607166714661	434.707126950734	0.0999602360734571	stim06_sf1_pattern2_cont2_shape1.png	1	2	2	1	1	2	0	0	0	0	0	0	0	0	0	0	0	0	1	4
335.33447265625	0.0999869213046622	686765	402	8	stim08_sf2_pattern1_cont1_shape1.png	2	66	0	435.107126540192	435.207113461496	0.0999869213046622	stim08_sf2_pattern1_cont1_shape1.png	2	1	1	1	1	1	0	0	0	0	0	0	0	0	0	0	0	0	1	4
335.83447265625	0.099991319970286	687789	403	5	stim05_sf1_pattern2_cont1_shape2.png	2	67	0	435.607126246947	435.707117566917	0.099991319970286	stim05_sf1_pattern2_cont1_shape2.png	1	2	1	2	1	4	0	0	0	0	0	0	0	0	0	0	0	0	1	4
336.33447265625	0.100002463252167	688813	404	2	stim02_sf1_pattern1_cont2_shape1.png	2	68	0	436.107101907672	436.207104370924	0.100002463252167	stim02_sf1_pattern1_cont2_shape1.png	1	1	2	1	1	1	0	0	0	0	0	0	0	0	0	0	0	0	1	4
336.83447265625	0.0999995308084181	689837	405	4	stim04_sf1_pattern2_cont1_shape1.png	2	69	0	436.607101614427	436.707101145235	0.0999995308084181	stim04_sf1_pattern2_cont1_shape1.png	1	2	1	1	1	2	0	0	0	0	0	0	0	0	0	0	0	0	1	4
337.33447265625	0.099995425389352	690861	406	5	stim05_sf1_pattern2_cont1_shape2.png	2	70	0	437.107090471143	437.207085896533	0.099995425389352	stim05_sf1_pattern2_cont1_shape2.png	1	2	1	2	1	4	0	0	0	0	0	0	0	0	0	0	0	0	1	4
337.83447265625	0.0999963051217492	691885	407	11	stim11_sf2_pattern1_cont2_shape2.png	2	71	0	437.607088711678	437.7070850168	0.0999963051217492	stim11_sf2_pattern1_cont2_shape2.png	2	1	2	2	1	3	0	0	0	0	0	0	0	0	0	0	0	0	1	4
338.333984375	0.0999754847780423	692908	408	14	stim14_sf2_pattern2_cont2_shape1.png	2	72	0	438.107063492667	438.207038977445	0.0999754847780423	stim14_sf2_pattern2_cont2_shape1.png	2	2	2	1	1	2	0	0	0	0	0	0	0	0	0	0	0	0	1	4
338.833984375	0.0999781239752338	693932	409	10	stim10_sf2_pattern1_cont2_shape1.png	2	73	0	438.60703152904	438.707009653015	0.0999781239752338	stim10_sf2_pattern1_cont2_shape1.png	2	1	2	1	1	1	0	0	0	0	0	0	0	0	0	0	0	0	1	4
339.333984375	0.100013899780606	694956	410	15	stim15_sf2_pattern2_cont2_shape2.png	2	74	0	439.107075808928	439.207089708709	0.100013899780606	stim15_sf2_pattern2_cont2_shape2.png	2	2	2	2	1	4	0	0	0	0	0	0	0	0	0	0	0	0	1	4
339.833984375	0.0999573036315269	695980	411	7	stim07_sf1_pattern2_cont2_shape2.png	2	75	0	439.607066131866	439.707023435498	0.0999573036315269	stim07_sf1_pattern2_cont2_shape2.png	1	2	2	2	1	4	0	0	0	0	0	0	0	0	0	0	0	0	1	4
340.333984375	0.1000156592454	697004	412	6	stim06_sf1_pattern2_cont2_shape1.png	2	76	0	440.107030062818	440.207045722063	0.1000156592454	stim06_sf1_pattern2_cont2_shape1.png	1	2	2	1	1	2	0	0	0	0	0	0	0	0	0	0	0	0	1	4
340.833984375	0.0999957186322717	698028	413	1	stim01_sf1_pattern1_cont1_shape2.png	2	77	0	440.607031822285	440.707027540917	0.0999957186322717	stim01_sf1_pattern1_cont1_shape2.png	1	1	1	2	1	3	0	0	0	0	0	0	0	0	0	0	0	0	1	4
341.333984375	0.100025629551965	699052	414	0	stim00_sf1_pattern1_cont1_shape1.png	2	78	0	441.106989888349	441.207015517901	0.100025629551965	stim00_sf1_pattern1_cont1_shape1.png	1	1	1	1	1	1	0	0	0	0	0	0	0	0	0	0	0	0	1	4
341.833984375	0.0999951321446133	700076	415	13	stim13_sf2_pattern2_cont1_shape2.png	2	79	0	441.60700836274	441.707003494885	0.0999951321446133	stim13_sf2_pattern2_cont1_shape2.png	2	2	1	2	1	4	0	0	0	0	0	0	0	0	0	0	0	0	1	4
342.333984375	0.0999831091285159	701100	416	9	stim09_sf2_pattern1_cont1_shape2.png	2	80	0	442.106994873502	442.206977982631	0.0999831091285159	stim09_sf2_pattern1_cont1_shape2.png	2	1	1	2	1	3	0	0	0	0	0	0	0	0	0	0	0	0	1	4
342.833984375	0.0999361900412623	702124	417	8	stim08_sf2_pattern1_cont1_shape1.png	2	81	0	442.606984316708	442.706920506749	0.0999361900412623	stim08_sf2_pattern1_cont1_shape1.png	2	1	1	1	1	1	0	0	0	0	0	0	0	0	0	0	0	0	1	4
343.333984375	0.1000045159617	703148	418	3	stim03_sf1_pattern1_cont2_shape2.png	2	82	0	443.10695440579	443.206958921752	0.1000045159617	stim03_sf1_pattern1_cont2_shape2.png	1	1	2	2	1	3	0	0	0	0	0	0	0	0	0	0	0	0	1	4
343.833984375	0.0999960118788294	704172	419	12	stim12_sf2_pattern2_cont1_shape1.png	2	83	0	443.606946781438	443.706942793317	0.0999960118788294	stim12_sf2_pattern2_cont1_shape1.png	2	2	1	1	1	2	0	0	0	0	0	0	0	0	0	0	0	0	1	4
344.333984375	0.0999998240531568	705196	420	15	stim15_sf2_pattern2_cont2_shape2.png	2	84	0	444.106931532735	444.206931356788	0.0999998240531568	stim15_sf2_pattern2_cont2_shape2.png	2	2	2	2	1	4	0	0	0	0	0	0	0	0	0	0	0	0	1	4
344.833984375	0.0999945456551359	706220	421	14	stim14_sf2_pattern2_cont2_shape1.png	2	85	0	444.606936517888	444.706931063543	0.0999945456551359	stim14_sf2_pattern2_cont2_shape1.png	2	2	2	1	1	2	0	0	0	0	0	0	0	0	0	0	0	0	1	4
345.333984375	0.0999971848541463	707244	422	6	stim06_sf1_pattern2_cont2_shape1.png	2	86	0	445.106923321895	445.206920506749	0.0999971848541463	stim06_sf1_pattern2_cont2_shape1.png	1	2	2	1	1	2	0	0	0	0	0	0	0	0	0	0	0	0	1	4
345.833984375	0.0999968916112266	708268	423	8	stim08_sf2_pattern1_cont1_shape1.png	2	87	0	445.606914231321	445.706911122932	0.0999968916112266	stim08_sf2_pattern1_cont1_shape1.png	2	1	1	1	1	1	0	0	0	0	0	0	0	0	0	0	0	0	1	4
346.333984375	0.0999866280599235	709292	424	3	stim03_sf1_pattern1_cont2_shape2.png	2	88	0	446.106884320403	446.206870948463	0.0999866280599235	stim03_sf1_pattern1_cont2_shape2.png	1	1	2	2	1	3	0	0	0	0	0	0	0	0	0	0	0	0	1	4
346.833984375	0.0999930794332613	710316	425	9	stim09_sf2_pattern1_cont1_shape2.png	2	89	0	446.606890771778	446.706883851211	0.0999930794332613	stim09_sf2_pattern1_cont1_shape2.png	2	1	1	2	1	3	0	0	0	0	0	0	0	0	0	0	0	0	1	4
347.333984375	0.0999957186322717	711340	426	13	stim13_sf2_pattern2_cont1_shape2.png	2	90	0	447.106877575785	447.206873294417	0.0999957186322717	stim13_sf2_pattern2_cont1_shape2.png	2	2	1	2	1	4	0	0	0	0	0	0	0	0	0	0	0	0	1	4
347.833984375	0.100002463252167	712364	427	2	stim02_sf1_pattern1_cont2_shape1.png	2	91	0	447.606852650018	447.706855113271	0.100002463252167	stim02_sf1_pattern1_cont2_shape1.png	1	1	2	1	1	1	0	0	0	0	0	0	0	0	0	0	0	0	1	4
348.333984375	0.0999965983664879	713388	428	5	stim05_sf1_pattern2_cont1_shape2.png	2	92	0	448.106835935094	448.20683253346	0.0999965983664879	stim05_sf1_pattern2_cont1_shape2.png	1	2	1	2	1	4	0	0	0	0	0	0	0	0	0	0	0	0	1	4
348.833984375	0.0999910267237283	714412	429	1	stim01_sf1_pattern1_cont1_shape2.png	2	93	0	448.606847078378	448.706838105101	0.0999910267237283	stim01_sf1_pattern1_cont1_shape2.png	1	1	1	2	1	3	0	0	0	0	0	0	0	0	0	0	0	0	1	4
349.333984375	0.100015072755923	715436	430	4	stim04_sf1_pattern2_cont1_shape1.png	2	94	0	449.106789309251	449.206804382007	0.100015072755923	stim04_sf1_pattern2_cont1_shape1.png	1	2	1	1	1	2	0	0	0	0	0	0	0	0	0	0	0	0	1	4
349.833984375	0.0999658077143977	716460	431	11	stim11_sf2_pattern1_cont2_shape2.png	2	95	0	449.606808663375	449.706774471089	0.0999658077143977	stim11_sf2_pattern1_cont2_shape2.png	2	1	2	2	1	3	0	0	0	0	0	0	0	0	0	0	0	0	1	4
350.333984375	0.0999590630963212	717484	432	0	stim00_sf1_pattern1_cont1_shape1.png	2	96	0	450.106797813336	450.206756876432	0.0999590630963212	stim00_sf1_pattern1_cont1_shape1.png	1	1	1	1	1	1	0	0	0	0	0	0	0	0	0	0	0	0	1	4
350.833984375	0.100000117297895	718508	433	12	stim12_sf2_pattern2_cont1_shape1.png	2	97	0	450.606769368638	450.706769485936	0.100000117297895	stim12_sf2_pattern2_cont1_shape1.png	2	2	1	1	1	2	0	0	0	0	0	0	0	0	0	0	0	0	1	4
351.333984375	0.0999836956179934	719532	434	10	stim10_sf2_pattern1_cont2_shape1.png	2	98	0	451.106761157798	451.206744853416	0.0999836956179934	stim10_sf2_pattern1_cont2_shape1.png	2	1	2	1	1	1	0	0	0	0	0	0	0	0	0	0	0	0	1	4
351.833984375	0.100005395695916	720556	435	7	stim07_sf1_pattern2_cont2_shape2.png	2	99	0	451.606748841537	451.706754237233	0.100005395695916	stim07_sf1_pattern2_cont2_shape2.png	1	2	2	2	1	4	0	0	0	0	0	0	0	0	0	0	0	0	1	4
352.333984375	0.0999919064579444	721580	436	13	stim13_sf2_pattern2_cont1_shape2.png	2	100	0	452.106727434704	452.206719341162	0.0999919064579444	stim13_sf2_pattern2_cont1_shape2.png	2	2	1	2	1	4	0	0	0	0	0	0	0	0	0	0	0	0	1	4
352.833984375	0.0999769509980979	722604	437	8	stim08_sf2_pattern1_cont1_shape1.png	2	101	0	452.606730953636	452.706707904634	0.0999769509980979	stim08_sf2_pattern1_cont1_shape1.png	2	1	1	1	1	1	0	0	0	0	0	0	0	0	0	0	0	0	1	4
353.333984375	0.100010087602641	723628	438	7	stim07_sf1_pattern2_cont2_shape2.png	2	102	0	453.106707494093	453.206717581696	0.100010087602641	stim07_sf1_pattern2_cont2_shape2.png	1	2	2	2	1	4	0	0	0	0	0	0	0	0	0	0	0	0	1	4
353.833984375	0.0999464535907464	724652	439	2	stim02_sf1_pattern1_cont2_shape1.png	2	103	0	453.606708080581	453.706654534171	0.0999464535907464	stim02_sf1_pattern1_cont2_shape1.png	1	1	2	1	1	1	0	0	0	0	0	0	0	0	0	0	0	0	1	4
354.333984375	0.0999924929456029	725676	440	14	stim14_sf2_pattern2_cont2_shape1.png	2	104	0	454.1066942981	454.206686791045	0.0999924929456029	stim14_sf2_pattern2_cont2_shape1.png	2	2	2	1	1	2	0	0	0	0	0	0	0	0	0	0	0	0	1	4
354.833984375	0.0999939591674774	726700	441	6	stim06_sf1_pattern2_cont2_shape1.png	2	105	0	454.60670250894	454.706696468107	0.0999939591674774	stim06_sf1_pattern2_cont2_shape1.png	1	2	2	1	1	2	0	0	0	0	0	0	0	0	0	0	0	0	1	4
355.333984375	0.0999819361513801	727724	442	0	stim00_sf1_pattern1_cont1_shape1.png	2	106	1	455.106672011532	455.206653947684	0.0999819361513801	stim00_sf1_pattern1_cont1_shape1.png	1	1	1	1	1	1	0	0	0	0	0	0	0	0	0	0	0	0	1	4
355.83349609375	0.0999995308084181	728747	443	0	stim00_sf1_pattern1_cont1_shape1.png	2	107	1	455.606680515617	455.706680046425	0.0999995308084181	stim00_sf1_pattern1_cont1_shape1.png	1	1	1	1	1	1	0	0	0	0	0	0	0	0	0	0	0	0	1	4
356.33349609375	0.10000158351977	729771	444	8	stim08_sf2_pattern1_cont1_shape1.png	2	108	2	456.106586384198	456.206587967717	0.10000158351977	stim08_sf2_pattern1_cont1_shape1.png	2	1	1	1	1	1	0	0	0	0	0	0	0	0	0	0	0	0	1	4
356.83349609375	0.0999995308084181	730795	445	2	stim02_sf1_pattern1_cont2_shape1.png	2	109	2	456.606661161493	456.706660692302	0.0999995308084181	stim02_sf1_pattern1_cont2_shape1.png	1	1	2	1	1	1	0	0	0	0	0	0	0	0	0	0	0	0	1	4
357.33349609375	0.0999948389016936	731819	446	10	stim10_sf2_pattern1_cont2_shape1.png	2	110	0	457.106623332978	457.20661817188	0.0999948389016936	stim10_sf2_pattern1_cont2_shape1.png	2	1	2	1	1	1	0	0	0	0	0	0	0	0	0	0	0	0	1	4
357.83349609375	0.100036186346188	732843	447	5	stim05_sf1_pattern2_cont1_shape2.png	2	111	0	457.60660837752	457.706644563867	0.100036186346188	stim05_sf1_pattern2_cont1_shape2.png	1	2	1	2	1	4	0	0	0	0	0	0	0	0	0	0	0	0	1	4
358.33349609375	0.100016245734878	733867	448	4	stim04_sf1_pattern2_cont1_shape1.png	2	112	0	458.10659547477	458.206611720505	0.100016245734878	stim04_sf1_pattern2_cont1_shape1.png	1	2	1	1	1	2	0	0	0	0	0	0	0	0	0	0	0	0	1	4
358.83349609375	0.0999989443207596	734891	449	9	stim09_sf2_pattern1_cont1_shape2.png	2	113	0	458.606603392367	458.706602336688	0.0999989443207596	stim09_sf2_pattern1_cont1_shape2.png	2	1	1	2	1	3	0	0	0	0	0	0	0	0	0	0	0	0	1	4
359.33349609375	0.100019471421547	735915	450	1	stim01_sf1_pattern1_cont1_shape2.png	2	114	0	459.106557059768	459.206576531189	0.100019471421547	stim01_sf1_pattern1_cont1_shape2.png	1	1	1	2	1	3	0	0	0	0	0	0	0	0	0	0	0	0	1	4
