onset	duration	onsetsample	eventnumber	stimnumber	stimname	blocknumber	trialnumber	istarget	time_stimon	time_stimoff	stimdur	stimfilename	spatial_freq	pattern	contrast	shape	is_fast_stream	category	ppt_1_response	ppt_1_keypressed	ppt_1_rt	ppt_1_correct	ppt_2_response	ppt_2_keypressed	ppt_2_rt	ppt_2_correct	button1	button2	button3	button4	task_part_number	subjectnr
148.7578125	0.0999886513491219	304656	0	1	stim01_sf1_pattern1_cont1_shape2.png	0	0	0	183.883172824702	183.983161476051	0.0999886513491219	stim01_sf1_pattern1_cont1_shape2.png	1	1	1	2	1	1	0	0	0	0	0	0	0	0	0	0	0	0	1	15
149.26611328125	0.0999951027770294	305697	1	5	stim05_sf1_pattern2_cont1_shape2.png	0	1	0	184.391537542775	184.491532645552	0.0999951027770294	stim05_sf1_pattern2_cont1_shape2.png	1	2	1	2	1	1	0	0	0	0	0	0	0	0	0	0	0	0	1	15
149.76611328125	0.106483774507069	306721	2	15	stim15_sf2_pattern2_cont2_shape2.png	0	2	0	184.910018395372	185.016502169879	0.106483774507069	stim15_sf2_pattern2_cont2_shape2.png	2	2	2	2	1	4	0	0	0	0	0	0	0	0	0	0	0	0	1	15
150.29931640625	0.100008592129598	307813	3	14	stim14_sf2_pattern2_cont2_shape1.png	0	3	0	185.424821346725	185.524829938855	0.100008592129598	stim14_sf2_pattern2_cont2_shape1.png	2	2	2	1	1	4	0	0	0	0	0	0	0	0	0	0	0	0	1	15
150.79931640625	0.099997448753129	308837	4	6	stim06_sf1_pattern2_cont2_shape1.png	0	4	0	185.924842900364	186.024840349117	0.099997448753129	stim06_sf1_pattern2_cont2_shape1.png	1	2	2	1	1	3	0	0	0	0	0	0	0	0	0	0	0	0	1	15
151.29931640625	0.0999387993942946	309861	5	3	stim03_sf1_pattern1_cont2_shape2.png	0	5	0	186.42485008491	186.524788884304	0.0999387993942946	stim03_sf1_pattern1_cont2_shape2.png	1	1	2	2	1	3	0	0	0	0	0	0	0	0	0	0	0	0	1	15
151.79931640625	0.099997448753129	310885	6	11	stim11_sf2_pattern1_cont2_shape2.png	0	6	0	186.92482677179	187.024824220543	0.099997448753129	stim11_sf2_pattern1_cont2_shape2.png	2	1	2	2	1	4	0	0	0	0	0	0	0	0	0	0	0	0	1	15
152.29931640625	0.0999214978346572	311909	7	0	stim00_sf1_pattern1_cont1_shape1.png	0	7	0	187.424898763877	187.524820261711	0.0999214978346572	stim00_sf1_pattern1_cont1_shape1.png	1	1	1	1	1	1	0	0	0	0	0	0	0	0	0	0	0	0	1	15
152.79931640625	0.0999980352480634	312933	8	8	stim08_sf2_pattern1_cont1_shape1.png	0	8	0	187.924811816203	188.024809851451	0.0999980352480634	stim08_sf2_pattern1_cont1_shape1.png	2	1	1	1	1	2	0	0	0	0	0	0	0	0	0	0	0	0	1	15
153.29931640625	0.0999983284928021	313957	9	9	stim09_sf2_pattern1_cont1_shape2.png	0	9	0	188.424803165424	188.524801493917	0.0999983284928021	stim09_sf2_pattern1_cont1_shape2.png	2	1	1	2	1	2	0	0	0	0	0	0	0	0	0	0	0	0	1	15
153.79931640625	0.099997448753129	314981	10	10	stim10_sf2_pattern1_cont2_shape1.png	0	10	0	188.92479568763	189.024793136383	0.099997448753129	stim10_sf2_pattern1_cont2_shape1.png	2	1	2	1	1	4	0	0	0	0	0	0	0	0	0	0	0	0	1	15
154.29931640625	0.10001914901477	316005	11	13	stim13_sf2_pattern2_cont1_shape2.png	0	11	0	189.424766216329	189.524785365344	0.10001914901477	stim13_sf2_pattern2_cont1_shape2.png	2	2	1	2	1	2	0	0	0	0	0	0	0	0	0	0	0	0	1	15
154.79931640625	0.0999549279695202	317029	12	12	stim12_sf2_pattern2_cont1_shape1.png	0	12	0	189.924800086332	190.024755014301	0.0999549279695202	stim12_sf2_pattern2_cont1_shape1.png	2	2	1	1	1	2	0	0	0	0	0	0	0	0	0	0	0	0	1	15
155.29931640625	0.100015336805882	318053	13	7	stim07_sf1_pattern2_cont2_shape2.png	0	13	0	190.424753020223	190.524768357029	0.100015336805882	stim07_sf1_pattern2_cont2_shape2.png	1	2	2	2	1	3	0	0	0	0	0	0	0	0	0	0	0	0	1	15
155.79931640625	0.0999986217393598	319077	14	2	stim02_sf1_pattern1_cont2_shape1.png	0	14	0	190.924762257497	191.024760879236	0.0999986217393598	stim02_sf1_pattern1_cont2_shape1.png	1	1	2	1	1	3	0	0	0	0	0	0	0	0	0	0	0	0	1	15
156.29931640625	0.100017389535424	320101	15	4	stim04_sf1_pattern2_cont1_shape1.png	0	15	0	191.424735425415	191.52475281495	0.100017389535424	stim04_sf1_pattern2_cont1_shape1.png	1	2	1	1	1	1	0	0	0	0	0	0	0	0	0	0	0	0	1	15
156.79931640625	0.0999942230391753	321125	16	5	stim05_sf1_pattern2_cont1_shape2.png	0	16	0	191.924749354637	192.024743577676	0.0999942230391753	stim05_sf1_pattern2_cont1_shape2.png	1	2	1	2	1	1	0	0	0	0	0	0	0	0	0	0	0	0	1	15
157.29931640625	0.100037916809015	322149	17	3	stim03_sf1_pattern1_cont2_shape2.png	0	17	0	192.424695250606	192.524733167415	0.100037916809015	stim03_sf1_pattern1_cont2_shape2.png	1	1	2	2	1	3	0	0	0	0	0	0	0	0	0	0	0	0	1	15
157.79931640625	0.100001260962017	323173	18	2	stim02_sf1_pattern1_cont2_shape1.png	0	18	0	192.924708593333	193.024709854295	0.100001260962017	stim02_sf1_pattern1_cont2_shape1.png	1	1	2	1	1	3	0	0	0	0	0	0	0	0	0	0	0	0	1	15
158.29931640625	0.0999467170586286	324197	19	12	stim12_sf2_pattern2_cont1_shape1.png	0	19	0	193.424712258919	193.524658975977	0.0999467170586286	stim12_sf2_pattern2_cont1_shape1.png	2	2	1	1	1	2	0	0	0	0	0	0	0	0	0	0	0	0	1	15
158.798828125	0.100014163819651	325220	20	7	stim07_sf1_pattern2_cont2_shape2.png	0	20	0	193.924654929171	194.024669092991	0.100014163819651	stim07_sf1_pattern2_cont2_shape2.png	1	2	2	2	1	3	0	0	0	0	0	0	0	0	0	0	0	0	1	15
159.298828125	0.100005952910578	326244	21	9	stim09_sf2_pattern1_cont1_shape2.png	0	21	0	194.424664752938	194.524670705849	0.100005952910578	stim09_sf2_pattern1_cont1_shape2.png	2	1	1	2	1	2	0	0	0	0	0	0	0	0	0	0	0	0	1	15
159.798828125	0.100003606934479	327268	22	13	stim13_sf2_pattern2_cont1_shape2.png	0	22	0	194.924678975409	195.024682582343	0.100003606934479	stim13_sf2_pattern2_cont1_shape2.png	2	2	1	2	1	2	0	0	0	0	0	0	0	0	0	0	0	0	1	15
160.298828125	0.0999643118648237	328292	23	15	stim15_sf2_pattern2_cont2_shape2.png	0	23	0	195.424704927749	195.524669239614	0.0999643118648237	stim15_sf2_pattern2_cont2_shape2.png	2	2	2	2	1	4	0	0	0	0	0	0	0	0	0	0	0	0	1	15
160.798828125	0.100013284078159	329316	24	8	stim08_sf2_pattern1_cont1_shape1.png	0	24	0	195.924663140082	196.02467642416	0.100013284078159	stim08_sf2_pattern1_cont1_shape1.png	2	1	1	1	1	2	0	0	0	0	0	0	0	0	0	0	0	0	1	15
161.298828125	0.0999745755034382	330340	25	0	stim00_sf1_pattern1_cont1_shape1.png	0	25	0	196.424686746448	196.524661321951	0.0999745755034382	stim00_sf1_pattern1_cont1_shape1.png	1	1	1	1	1	1	0	0	0	0	0	0	0	0	0	0	0	0	1	15
161.798828125	0.0999883581025642	331364	26	4	stim04_sf1_pattern2_cont1_shape1.png	0	26	0	196.924686893071	197.024675251174	0.0999883581025642	stim04_sf1_pattern2_cont1_shape1.png	1	2	1	1	1	1	0	0	0	0	0	0	0	0	0	0	0	0	1	15
162.298828125	0.0999977419996867	332388	27	1	stim01_sf1_pattern1_cont1_shape2.png	0	27	0	197.424671204368	197.524668946367	0.0999977419996867	stim01_sf1_pattern1_cont1_shape2.png	1	1	1	2	1	1	0	0	0	0	0	0	0	0	0	0	0	0	1	15
162.798828125	0.100007712389925	333412	28	6	stim06_sf1_pattern2_cont2_shape1.png	0	28	0	197.924635574884	198.024643287274	0.100007712389925	stim06_sf1_pattern2_cont2_shape1.png	1	2	2	1	1	3	0	0	0	0	0	0	0	0	0	0	0	0	1	15
163.298828125	0.0999962757650792	334436	29	10	stim10_sf2_pattern1_cont2_shape1.png	0	29	0	198.424645691897	198.524641967662	0.0999962757650792	stim10_sf2_pattern1_cont2_shape1.png	2	1	2	1	1	4	0	0	0	0	0	0	0	0	0	0	0	0	1	15
163.798828125	0.10000331368974	335460	30	11	stim11_sf2_pattern1_cont2_shape2.png	0	30	0	198.924639093844	199.024642407534	0.10000331368974	stim11_sf2_pattern1_cont2_shape2.png	2	1	2	2	1	4	0	0	0	0	0	0	0	0	0	0	0	0	1	15
164.298828125	0.0999997947274096	336484	31	14	stim14_sf2_pattern2_cont2_shape1.png	0	31	0	199.424630149817	199.524629944544	0.0999997947274096	stim14_sf2_pattern2_cont2_shape1.png	2	2	2	1	1	4	0	0	0	0	0	0	0	0	0	0	0	0	1	15
164.798828125	0.0999980352462444	337508	32	5	stim05_sf1_pattern2_cont1_shape2.png	0	32	0	199.92462032605	200.024618361296	0.0999980352462444	stim05_sf1_pattern2_cont1_shape2.png	1	2	1	2	1	1	0	0	0	0	0	0	0	0	0	0	0	0	1	15
165.298828125	0.0999959825185215	338532	33	0	stim00_sf1_pattern1_cont1_shape1.png	0	33	0	200.42461343475	200.524609417269	0.0999959825185215	stim00_sf1_pattern1_cont1_shape1.png	1	1	1	1	1	1	0	0	0	0	0	0	0	0	0	0	0	0	1	15
165.798828125	0.099989531088795	339556	34	7	stim07_sf1_pattern2_cont2_shape2.png	0	34	0	200.924612701634	201.024602232723	0.099989531088795	stim07_sf1_pattern2_cont2_shape2.png	1	2	2	2	1	3	0	0	0	0	0	0	0	0	0	0	0	0	1	15
166.298828125	0.0999965690134559	340580	35	9	stim09_sf2_pattern1_cont1_shape2.png	0	35	0	201.424600531891	201.524597100904	0.0999965690134559	stim09_sf2_pattern1_cont1_shape2.png	2	1	1	2	1	2	0	0	0	0	0	0	0	0	0	0	0	0	1	15
166.798828125	0.0999956892719638	341604	36	10	stim10_sf2_pattern1_cont2_shape1.png	0	36	0	201.924590708124	202.024586397396	0.0999956892719638	stim10_sf2_pattern1_cont2_shape1.png	2	1	2	1	1	4	0	0	0	0	0	0	0	0	0	0	0	0	1	15
167.298828125	0.0999933432976832	342628	37	2	stim02_sf1_pattern1_cont2_shape1.png	0	37	0	202.424586456045	202.524579799343	0.0999933432976832	stim02_sf1_pattern1_cont2_shape1.png	1	1	2	1	1	3	0	0	0	0	0	0	0	0	0	0	0	0	1	15
167.798828125	0.100000381220525	343652	38	13	stim13_sf2_pattern2_cont1_shape2.png	0	38	0	202.924572820069	203.02457320129	0.100000381220525	stim13_sf2_pattern2_cont1_shape2.png	2	2	1	2	1	2	0	0	0	0	0	0	0	0	0	0	0	0	1	15
168.298828125	0.099997448753129	344676	39	15	stim15_sf2_pattern2_cont2_shape2.png	0	39	0	203.424564755784	203.524562204537	0.099997448753129	stim15_sf2_pattern2_cont2_shape2.png	2	2	2	2	1	4	0	0	0	0	0	0	0	0	0	0	0	0	1	15
168.798828125	0.0999989149877365	345700	40	6	stim06_sf1_pattern2_cont2_shape1.png	0	40	0	203.924557277989	204.024556192977	0.0999989149877365	stim06_sf1_pattern2_cont2_shape1.png	1	2	2	1	1	3	0	0	0	0	0	0	0	0	0	0	0	0	1	15
169.298828125	0.0999622591389198	346724	41	11	stim11_sf2_pattern1_cont2_shape2.png	0	41	0	204.424550093443	204.524512352582	0.0999622591389198	stim11_sf2_pattern1_cont2_shape2.png	2	1	2	2	1	4	0	0	0	0	0	0	0	0	0	0	0	0	1	15
169.798828125	0.099994516285733	347748	42	3	stim03_sf1_pattern1_cont2_shape2.png	0	42	0	204.924542908897	205.024537425183	0.099994516285733	stim03_sf1_pattern1_cont2_shape2.png	1	1	2	2	1	3	0	0	0	0	0	0	0	0	0	0	0	0	1	15
170.298828125	0.0999751619965537	348772	43	4	stim04_sf1_pattern2_cont1_shape1.png	0	43	0	205.424541002792	205.524516164789	0.0999751619965537	stim04_sf1_pattern2_cont1_shape1.png	1	2	1	1	1	1	0	0	0	0	0	0	0	0	0	0	0	0	1	15
170.798828125	0.0999857188817259	349796	44	8	stim08_sf2_pattern1_cont1_shape1.png	0	44	0	205.924526780324	206.024512499205	0.0999857188817259	stim08_sf2_pattern1_cont1_shape1.png	2	1	1	1	1	2	0	0	0	0	0	0	0	0	0	0	0	0	1	15
171.298828125	0.0999854256333492	350820	45	14	stim14_sf2_pattern2_cont2_shape1.png	0	45	0	206.424512264608	206.524497690241	0.0999854256333492	stim14_sf2_pattern2_cont2_shape1.png	2	2	2	1	1	4	0	0	0	0	0	0	0	0	0	0	0	0	1	15
171.798828125	0.100007712389925	351844	46	12	stim12_sf2_pattern2_cont1_shape1.png	0	46	0	206.924479860838	207.024487573228	0.100007712389925	stim12_sf2_pattern2_cont1_shape1.png	2	2	1	1	1	2	0	0	0	0	0	0	0	0	0	0	0	0	1	15
172.298828125	0.100003900182855	352868	47	1	stim01_sf1_pattern1_cont1_shape2.png	0	47	0	207.424457427458	207.524461327641	0.100003900182855	stim01_sf1_pattern1_cont1_shape2.png	1	1	1	2	1	1	0	0	0	0	0	0	0	0	0	0	0	0	1	15
172.798828125	0.099983666154003	353892	48	11	stim11_sf2_pattern1_cont2_shape2.png	0	48	0	207.924454641614	208.024438307768	0.099983666154003	stim11_sf2_pattern1_cont2_shape2.png	2	1	2	2	1	4	0	0	0	0	0	0	0	0	0	0	0	0	1	15
173.298828125	0.0999953960254061	354916	49	1	stim01_sf1_pattern1_cont1_shape2.png	0	49	0	208.424454201742	208.524449597768	0.0999953960254061	stim01_sf1_pattern1_cont1_shape2.png	1	1	1	2	1	1	0	0	0	0	0	0	0	0	0	0	0	0	1	15
173.798828125	0.0999980352462444	355940	50	6	stim06_sf1_pattern2_cont2_shape1.png	0	50	0	208.924435580571	209.024433615818	0.0999980352462444	stim06_sf1_pattern2_cont2_shape1.png	1	2	2	1	1	3	0	0	0	0	0	0	0	0	0	0	0	0	1	15
174.298828125	0.100008005638301	356964	51	4	stim04_sf1_pattern2_cont1_shape1.png	0	51	0	209.424419305375	209.524427311013	0.100008005638301	stim04_sf1_pattern2_cont1_shape1.png	1	2	1	1	1	1	0	0	0	0	0	0	0	0	0	0	0	0	1	15
174.798828125	0.100021788237427	357988	52	15	stim15_sf2_pattern2_cont2_shape2.png	0	52	0	209.924419745244	210.024441533482	0.100021788237427	stim15_sf2_pattern2_cont2_shape2.png	2	2	2	2	1	4	0	0	0	0	0	0	0	0	0	0	0	0	1	15
175.298828125	0.0999989149877365	359012	53	2	stim02_sf1_pattern1_cont2_shape1.png	0	53	0	210.424440419143	210.524439334131	0.0999989149877365	stim02_sf1_pattern1_cont2_shape1.png	1	1	2	1	1	3	0	0	0	0	0	0	0	0	0	0	0	0	1	15
175.79833984375	0.100000674468902	360035	54	0	stim00_sf1_pattern1_cont1_shape1.png	0	54	0	210.924428835895	211.024429510364	0.100000674468902	stim00_sf1_pattern1_cont1_shape1.png	1	1	1	1	1	1	0	0	0	0	0	0	0	0	0	0	0	0	1	15
176.29833984375	0.0999986217393598	361059	55	5	stim05_sf1_pattern2_cont1_shape2.png	0	55	0	211.424424877065	211.524423498804	0.0999986217393598	stim05_sf1_pattern2_cont1_shape2.png	1	2	1	2	1	1	0	0	0	0	0	0	0	0	0	0	0	0	1	15
176.79833984375	0.0999558077073743	362083	56	3	stim03_sf1_pattern1_cont2_shape2.png	0	56	0	211.924445257717	212.024401065424	0.0999558077073743	stim03_sf1_pattern1_cont2_shape2.png	1	1	2	2	1	3	0	0	0	0	0	0	0	0	0	0	0	0	1	15
177.29833984375	0.100008298884859	363107	57	12	stim12_sf2_pattern2_cont1_shape1.png	0	57	0	212.42440053758	212.524408836465	0.100008298884859	stim12_sf2_pattern2_cont1_shape1.png	2	2	1	1	1	2	0	0	0	0	0	0	0	0	0	0	0	0	1	15
177.79833984375	0.0999921703096334	364131	58	7	stim07_sf1_pattern2_cont2_shape2.png	0	58	0	212.92442297096	213.02441514127	0.0999921703096334	stim07_sf1_pattern2_cont2_shape2.png	1	2	2	2	1	3	0	0	0	0	0	0	0	0	0	0	0	0	1	15
178.29833984375	0.0999962757650792	365155	59	8	stim08_sf2_pattern1_cont1_shape1.png	0	59	0	213.424409334984	213.524405610749	0.0999962757650792	stim08_sf2_pattern1_cont1_shape1.png	2	1	1	1	1	2	0	0	0	0	0	0	0	0	0	0	0	0	1	15
178.79833984375	0.100000674467083	366179	60	9	stim09_sf2_pattern1_cont1_shape2.png	0	60	0	213.924402150438	214.024402824905	0.100000674467083	stim09_sf2_pattern1_cont1_shape2.png	2	1	1	2	1	2	0	0	0	0	0	0	0	0	0	0	0	0	1	15
179.29833984375	0.0999968622581946	367203	61	14	stim14_sf2_pattern2_cont2_shape1.png	0	61	0	214.424392619918	214.524389482176	0.0999968622581946	stim14_sf2_pattern2_cont2_shape1.png	2	2	2	1	1	4	0	0	0	0	0	0	0	0	0	0	0	0	1	15
179.79833984375	0.100000381220525	368227	62	10	stim10_sf2_pattern1_cont2_shape1.png	0	62	0	214.924386901605	215.024387282825	0.100000381220525	stim10_sf2_pattern1_cont2_shape1.png	2	1	2	1	1	4	0	0	0	0	0	0	0	0	0	0	0	0	1	15
180.29833984375	0.0999939297907986	369251	63	13	stim13_sf2_pattern2_cont1_shape2.png	0	63	0	215.424379423812	215.524373353603	0.0999939297907986	stim13_sf2_pattern2_cont1_shape2.png	2	2	1	2	1	2	0	0	0	0	0	0	0	0	0	0	0	0	1	15
180.79833984375	0.100015923300816	370275	64	5	stim05_sf1_pattern2_cont1_shape2.png	0	64	0	215.924370773031	216.024386696332	0.100015923300816	stim05_sf1_pattern2_cont1_shape2.png	1	2	1	2	1	1	0	0	0	0	0	0	0	0	0	0	0	0	1	15
181.29833984375	0.100000381220525	371299	65	3	stim03_sf1_pattern1_cont2_shape2.png	0	65	0	216.424360362771	216.524360743992	0.100000381220525	stim03_sf1_pattern1_cont2_shape2.png	1	1	2	2	1	3	0	0	0	0	0	0	0	0	0	0	0	0	1	15
181.79833984375	0.0999769214777189	372323	66	2	stim02_sf1_pattern1_cont2_shape1.png	0	66	0	216.924356697185	217.024333618663	0.0999769214777189	stim02_sf1_pattern1_cont2_shape1.png	1	1	2	1	1	3	0	0	0	0	0	0	0	0	0	0	0	0	1	15
182.29833984375	0.0999992082342942	373347	67	8	stim08_sf2_pattern1_cont1_shape1.png	0	67	0	217.424345407184	217.524344615418	0.0999992082342942	stim08_sf2_pattern1_cont1_shape1.png	2	1	1	1	1	2	0	0	0	0	0	0	0	0	0	0	0	0	1	15
182.79833984375	0.0999968622581946	374371	68	9	stim09_sf2_pattern1_cont1_shape2.png	0	68	0	217.924337636145	218.024334498403	0.0999968622581946	stim09_sf2_pattern1_cont1_shape2.png	2	1	1	2	1	2	0	0	0	0	0	0	0	0	0	0	0	0	1	15
183.29833984375	0.0999951027788484	375395	69	15	stim15_sf2_pattern2_cont2_shape2.png	0	69	0	218.424333384066	218.524328486845	0.0999951027788484	stim15_sf2_pattern2_cont2_shape2.png	2	2	2	2	1	4	0	0	0	0	0	0	0	0	0	0	0	0	1	15
183.79833984375	0.0999953960254061	376419	70	1	stim01_sf1_pattern1_cont1_shape2.png	0	70	0	218.924323560297	219.024318956323	0.0999953960254061	stim01_sf1_pattern1_cont1_shape2.png	1	1	1	2	1	1	0	0	0	0	0	0	0	0	0	0	0	0	1	15
184.29833984375	0.0999930500511255	377443	71	13	stim13_sf2_pattern2_cont1_shape2.png	0	71	0	219.424318428479	219.52431147853	0.0999930500511255	stim13_sf2_pattern2_cont1_shape2.png	2	2	1	2	1	2	0	0	0	0	0	0	0	0	0	0	0	0	1	15
184.79833984375	0.0999798539451149	378467	72	7	stim07_sf1_pattern2_cont2_shape2.png	0	72	0	219.924308018219	220.024287872164	0.0999798539451149	stim07_sf1_pattern2_cont2_shape2.png	1	2	2	2	1	3	0	0	0	0	0	0	0	0	0	0	0	0	1	15
185.29833984375	0.0999933432976832	379491	73	4	stim04_sf1_pattern2_cont1_shape1.png	0	73	0	220.424286464578	220.524279807876	0.0999933432976832	stim04_sf1_pattern2_cont1_shape1.png	1	2	1	1	1	1	0	0	0	0	0	0	0	0	0	0	0	0	1	15
185.79833984375	0.0999657781012502	380515	74	10	stim10_sf2_pattern1_cont2_shape1.png	0	74	0	220.924298341073	221.024264119174	0.0999657781012502	stim10_sf2_pattern1_cont2_shape1.png	2	1	2	1	1	4	0	0	0	0	0	0	0	0	0	0	0	0	1	15
186.29833984375	0.0999971555065713	381539	75	0	stim00_sf1_pattern1_cont1_shape1.png	0	75	0	221.424285584839	221.524282740345	0.0999971555065713	stim00_sf1_pattern1_cont1_shape1.png	1	1	1	1	1	1	0	0	0	0	0	0	0	0	0	0	0	0	1	15
186.79833984375	0.0999860121282836	382563	76	11	stim11_sf2_pattern1_cont2_shape2.png	0	76	0	221.924272535356	222.024258547484	0.0999860121282836	stim11_sf2_pattern1_cont2_shape2.png	2	1	2	2	1	4	0	0	0	0	0	0	0	0	0	0	0	0	1	15
187.29833984375	0.0999860121282836	383587	77	12	stim12_sf2_pattern2_cont1_shape1.png	0	77	0	222.424265057563	222.524251069692	0.0999860121282836	stim12_sf2_pattern2_cont1_shape1.png	2	2	1	1	1	2	0	0	0	0	0	0	0	0	0	0	0	0	1	15
187.79833984375	0.099997448753129	384611	78	6	stim06_sf1_pattern2_cont2_shape1.png	0	78	0	222.924240571456	223.024238020209	0.099997448753129	stim06_sf1_pattern2_cont2_shape1.png	1	2	2	1	1	3	0	0	0	0	0	0	0	0	0	0	0	0	1	15
188.29833984375	0.0999948095304717	385635	79	14	stim14_sf2_pattern2_cont2_shape1.png	0	79	0	223.424211393401	223.524206202932	0.0999948095304717	stim14_sf2_pattern2_cont2_shape1.png	2	2	2	1	1	4	0	0	0	0	0	0	0	0	0	0	0	0	1	15
188.79833984375	0.0999971555065713	386659	80	11	stim11_sf2_pattern1_cont2_shape2.png	0	80	0	223.924209780544	224.02420693605	0.0999971555065713	stim11_sf2_pattern1_cont2_shape2.png	2	1	2	2	1	4	0	0	0	0	0	0	0	0	0	0	0	0	1	15
189.29833984375	0.099942318356625	387683	81	7	stim07_sf1_pattern2_cont2_shape2.png	0	81	0	224.424235732884	224.524178051241	0.099942318356625	stim07_sf1_pattern2_cont2_shape2.png	1	2	2	2	1	3	0	0	0	0	0	0	0	0	0	0	0	0	1	15
189.79833984375	0.0999734025172074	388707	82	14	stim14_sf2_pattern2_cont2_shape1.png	0	82	0	224.924229134831	225.024202537348	0.0999734025172074	stim14_sf2_pattern2_cont2_shape1.png	2	2	2	1	1	4	0	0	0	0	0	0	0	0	0	0	0	0	1	15
190.29833984375	0.0999918770630757	389731	83	9	stim09_sf2_pattern1_cont1_shape2.png	0	83	0	225.424209927167	225.52420180423	0.0999918770630757	stim09_sf2_pattern1_cont1_shape2.png	2	1	1	2	1	2	0	0	0	0	0	0	0	0	0	0	0	0	1	15
190.79833984375	0.0999930500511255	390755	84	2	stim02_sf1_pattern1_cont2_shape1.png	0	84	0	225.9242001034	226.024193153451	0.0999930500511255	stim02_sf1_pattern1_cont2_shape1.png	1	1	2	1	1	3	0	0	0	0	0	0	0	0	0	0	0	0	1	15
191.29833984375	0.0999763349846035	391779	85	12	stim12_sf2_pattern2_cont1_shape1.png	0	85	0	226.424209927167	226.524186262151	0.0999763349846035	stim12_sf2_pattern2_cont1_shape1.png	2	2	1	1	1	2	0	0	0	0	0	0	0	0	0	0	0	0	1	15
191.79833984375	0.100010351612582	392803	86	0	stim00_sf1_pattern1_cont1_shape1.png	0	86	0	226.924153183912	227.024163535525	0.100010351612582	stim00_sf1_pattern1_cont1_shape1.png	1	1	1	1	1	1	0	0	0	0	0	0	0	0	0	0	0	0	1	15
192.29833984375	0.0999936365460599	393827	87	12	stim12_sf2_pattern2_cont1_shape1.png	0	87	1	227.424202009503	227.524195646049	0.0999936365460599	stim12_sf2_pattern2_cont1_shape1.png	2	2	1	1	1	2	0	0	0	0	0	0	0	0	0	0	0	0	1	15
192.79833984375	0.0999965690116369	394851	88	12	stim12_sf2_pattern2_cont1_shape1.png	0	88	1	227.924193945217	228.024190514228	0.0999965690116369	stim12_sf2_pattern2_cont1_shape1.png	2	2	1	1	1	2	0	0	0	0	0	0	0	0	0	0	0	0	1	15
193.2978515625	0.10000214070169	395874	89	8	stim08_sf2_pattern1_cont1_shape1.png	0	89	2	228.424170925344	228.524173066045	0.10000214070169	stim08_sf2_pattern1_cont1_shape1.png	2	1	1	1	1	2	0	0	0	0	0	0	0	0	0	0	0	0	1	15
193.7978515625	0.099983666154003	396898	90	15	stim15_sf2_pattern2_cont2_shape2.png	0	90	2	228.924166086772	229.024149752926	0.099983666154003	stim15_sf2_pattern2_cont2_shape2.png	2	2	2	2	1	4	0	0	0	0	0	0	0	0	0	0	0	0	1	15
194.2978515625	0.0999983284928021	397922	91	8	stim08_sf2_pattern1_cont1_shape1.png	0	91	0	229.424170045604	229.524168374097	0.0999983284928021	stim08_sf2_pattern1_cont1_shape1.png	2	1	1	1	1	2	0	0	0	0	0	0	0	0	0	0	0	0	1	15
194.7978515625	0.100001554206756	398946	92	1	stim01_sf1_pattern1_cont1_shape2.png	0	92	0	229.924152010926	230.024153565133	0.100001554206756	stim01_sf1_pattern1_cont1_shape2.png	1	1	1	2	1	1	0	0	0	0	0	0	0	0	0	0	0	0	1	15
195.2978515625	0.0999953960254061	399970	93	3	stim03_sf1_pattern1_cont2_shape2.png	0	93	0	230.424146585859	230.524141981885	0.0999953960254061	stim03_sf1_pattern1_cont2_shape2.png	1	1	2	2	1	3	0	0	0	0	0	0	0	0	0	0	0	0	1	15
195.7978515625	0.0999968622600136	400994	94	13	stim13_sf2_pattern2_cont1_shape2.png	0	94	0	230.92413969456	231.02413655682	0.0999968622600136	stim13_sf2_pattern2_cont1_shape2.png	2	2	1	2	1	2	0	0	0	0	0	0	0	0	0	0	0	0	1	15
196.2978515625	0.0999965690134559	402018	95	6	stim06_sf1_pattern2_cont2_shape1.png	0	95	0	231.424130457286	231.5241270263	0.0999965690134559	stim06_sf1_pattern2_cont2_shape1.png	1	2	2	1	1	3	0	0	0	0	0	0	0	0	0	0	0	0	1	15
196.7978515625	0.0999980352462444	403042	96	15	stim15_sf2_pattern2_cont2_shape2.png	0	96	0	231.924121220012	232.024119255258	0.0999980352462444	stim15_sf2_pattern2_cont2_shape2.png	2	2	2	2	1	4	0	0	0	0	0	0	0	0	0	0	0	0	1	15
197.2978515625	0.100006246155317	404066	97	5	stim05_sf1_pattern2_cont1_shape2.png	0	97	0	232.424106117804	232.524112363959	0.100006246155317	stim05_sf1_pattern2_cont1_shape2.png	1	2	1	2	1	1	0	0	0	0	0	0	0	0	0	0	0	0	1	15
197.7978515625	0.0999965690134559	405090	98	4	stim04_sf1_pattern2_cont1_shape1.png	0	98	0	232.924107144167	233.02410371318	0.0999965690134559	stim04_sf1_pattern2_cont1_shape1.png	1	2	1	1	1	1	0	0	0	0	0	0	0	0	0	0	0	0	1	15
198.2978515625	0.0999710565429268	406114	99	10	stim10_sf2_pattern1_cont2_shape1.png	0	99	0	233.424102892088	233.524073948631	0.0999710565429268	stim10_sf2_pattern1_cont2_shape1.png	2	1	2	1	1	4	0	0	0	0	0	0	0	0	0	0	0	0	1	15
198.7978515625	0.0999971555047523	407138	100	3	stim03_sf1_pattern1_cont2_shape2.png	0	100	0	233.924090135853	234.024087291358	0.0999971555047523	stim03_sf1_pattern1_cont2_shape2.png	1	1	2	2	1	3	0	0	0	0	0	0	0	0	0	0	0	0	1	15
199.2978515625	0.0999956892719638	408162	101	8	stim08_sf2_pattern1_cont1_shape1.png	0	101	0	234.424084710787	234.524080400059	0.0999956892719638	stim08_sf2_pattern1_cont1_shape1.png	2	1	1	1	1	2	0	0	0	0	0	0	0	0	0	0	0	0	1	15
199.7978515625	0.099994516285733	409186	102	12	stim12_sf2_pattern2_cont1_shape1.png	0	102	0	234.924076939747	235.024071456033	0.099994516285733	stim12_sf2_pattern2_cont1_shape1.png	2	2	1	1	1	2	0	0	0	0	0	0	0	0	0	0	0	0	1	15
200.2978515625	0.100018855768212	410210	103	9	stim09_sf2_pattern1_cont1_shape2.png	0	103	0	235.424046588705	235.524065444473	0.100018855768212	stim09_sf2_pattern1_cont1_shape2.png	2	1	1	2	1	2	0	0	0	0	0	0	0	0	0	0	0	0	1	15
200.7978515625	0.0999965690134559	411234	104	2	stim02_sf1_pattern1_cont2_shape1.png	0	104	0	235.924059051693	236.024055620706	0.0999965690134559	stim02_sf1_pattern1_cont2_shape1.png	1	1	2	1	1	3	0	0	0	0	0	0	0	0	0	0	0	0	1	15
201.2978515625	0.0999842526471184	412258	105	0	stim00_sf1_pattern1_cont1_shape1.png	0	105	0	236.424067702474	236.524051955121	0.0999842526471184	stim00_sf1_pattern1_cont1_shape1.png	1	1	1	1	1	1	0	0	0	0	0	0	0	0	0	0	0	0	1	15
201.7978515625	0.0999886513491219	413282	106	14	stim14_sf2_pattern2_cont2_shape1.png	0	106	0	236.924050840784	237.024039492133	0.0999886513491219	stim14_sf2_pattern2_cont2_shape1.png	2	2	2	1	1	4	0	0	0	0	0	0	0	0	0	0	0	0	1	15
202.2978515625	0.0999983284928021	414306	107	6	stim06_sf1_pattern2_cont2_shape1.png	0	107	0	237.424033979092	237.524032307585	0.0999983284928021	stim06_sf1_pattern2_cont2_shape1.png	1	2	2	1	1	3	0	0	0	0	0	0	0	0	0	0	0	0	1	15
202.7978515625	0.0999681240737118	415330	108	1	stim01_sf1_pattern1_cont1_shape2.png	0	108	0	237.924049081303	238.024017205376	0.0999681240737118	stim01_sf1_pattern1_cont1_shape2.png	1	1	1	2	1	1	0	0	0	0	0	0	0	0	0	0	0	0	1	15
203.2978515625	0.0999792674519995	416354	109	15	stim15_sf2_pattern2_cont2_shape2.png	0	109	0	238.424017264026	238.523996531478	0.0999792674519995	stim15_sf2_pattern2_cont2_shape2.png	2	2	2	2	1	4	0	0	0	0	0	0	0	0	0	0	0	0	1	15
203.7978515625	0.0999968622581946	417378	110	10	stim10_sf2_pattern1_cont2_shape1.png	0	110	0	238.923991311685	239.023988173944	0.0999968622581946	stim10_sf2_pattern1_cont2_shape1.png	2	1	2	1	1	4	0	0	0	0	0	0	0	0	0	0	0	0	1	15
204.2978515625	0.099991583816518	418402	111	11	stim11_sf2_pattern1_cont2_shape2.png	0	111	0	239.423994684023	239.523986267839	0.099991583816518	stim11_sf2_pattern1_cont2_shape2.png	2	1	2	2	1	4	0	0	0	0	0	0	0	0	0	0	0	0	1	15
204.7978515625	0.099997448753129	419426	112	13	stim13_sf2_pattern2_cont1_shape2.png	0	112	0	239.923946444926	240.023943893679	0.099997448753129	stim13_sf2_pattern2_cont1_shape2.png	2	2	1	2	1	2	0	0	0	0	0	0	0	0	0	0	0	0	1	15
205.2978515625	0.0999889445956796	420450	113	5	stim05_sf1_pattern2_cont1_shape2.png	0	113	0	240.423968585059	240.523957529655	0.0999889445956796	stim05_sf1_pattern2_cont1_shape2.png	1	2	1	2	1	1	0	0	0	0	0	0	0	0	0	0	0	0	1	15
205.7978515625	0.0999995014790329	421474	114	7	stim07_sf1_pattern2_cont2_shape2.png	0	114	0	240.923964039734	241.023963541213	0.0999995014790329	stim07_sf1_pattern2_cont2_shape2.png	1	2	2	2	1	3	0	0	0	0	0	0	0	0	0	0	0	0	1	15
206.2978515625	0.100007125896809	422498	115	3	stim03_sf1_pattern1_cont2_shape2.png	0	115	1	241.423949524016	241.523956649913	0.100007125896809	stim03_sf1_pattern1_cont2_shape2.png	1	1	2	2	1	3	0	0	0	0	0	0	0	0	0	0	0	0	1	15
206.7978515625	0.099989531090614	423522	116	3	stim03_sf1_pattern1_cont2_shape2.png	0	116	1	241.923955828823	242.023945359913	0.099989531090614	stim03_sf1_pattern1_cont2_shape2.png	1	1	2	2	1	3	0	0	0	0	0	0	0	0	0	0	0	0	1	15
207.2978515625	0.100012111091928	424546	117	8	stim08_sf2_pattern1_cont1_shape1.png	0	117	2	242.423948644277	242.523960755369	0.100012111091928	stim08_sf2_pattern1_cont1_shape1.png	2	1	1	1	1	2	0	0	0	0	0	0	0	0	0	0	0	0	1	15
207.7978515625	0.0999942230391753	425570	118	6	stim06_sf1_pattern2_cont2_shape1.png	0	118	2	242.92396521272	243.023959435759	0.0999942230391753	stim06_sf1_pattern2_cont2_shape1.png	1	2	2	1	1	3	0	0	0	0	0	0	0	0	0	0	0	0	1	15
208.2978515625	0.0999992082342942	426594	119	4	stim04_sf1_pattern2_cont1_shape1.png	0	119	0	243.423953042979	243.523952251213	0.0999992082342942	stim04_sf1_pattern2_cont1_shape1.png	1	2	1	1	1	1	0	0	0	0	0	0	0	0	0	0	0	0	1	15
208.7978515625	0.099997448753129	427618	120	2	stim02_sf1_pattern1_cont2_shape1.png	0	120	0	243.923937647522	244.023935096275	0.099997448753129	stim02_sf1_pattern1_cont2_shape1.png	1	1	2	1	1	3	0	0	0	0	0	0	0	0	0	0	0	0	1	15
209.2978515625	0.100042608757576	428642	121	14	stim14_sf2_pattern2_cont2_shape1.png	0	121	0	244.423888821932	244.523931430689	0.100042608757576	stim14_sf2_pattern2_cont2_shape1.png	2	2	2	1	1	4	0	0	0	0	0	0	0	0	0	0	0	0	1	15
209.7978515625	0.0999760417380458	429666	122	9	stim09_sf2_pattern1_cont1_shape2.png	0	122	0	244.923947031419	245.023923073157	0.0999760417380458	stim09_sf2_pattern1_cont1_shape2.png	2	1	1	2	1	2	0	0	0	0	0	0	0	0	0	0	0	0	1	15
210.29736328125	0.0999939297926176	430689	123	6	stim06_sf1_pattern2_cont2_shape1.png	0	123	0	245.423917266869	245.523911196662	0.0999939297926176	stim06_sf1_pattern2_cont2_shape1.png	1	2	2	1	1	3	0	0	0	0	0	0	0	0	0	0	0	0	1	15
210.79736328125	0.0999968622581946	431713	124	3	stim03_sf1_pattern1_cont2_shape2.png	0	124	0	245.923906856609	246.023903718868	0.0999968622581946	stim03_sf1_pattern1_cont2_shape2.png	1	1	2	2	1	3	0	0	0	0	0	0	0	0	0	0	0	0	1	15
211.29736328125	0.0999933432976832	432737	125	1	stim01_sf1_pattern1_cont1_shape2.png	0	125	0	246.423902311284	246.523895654582	0.0999933432976832	stim01_sf1_pattern1_cont1_shape2.png	1	1	1	2	1	1	0	0	0	0	0	0	0	0	0	0	0	0	1	15
211.79736328125	0.0999930500511255	433761	126	13	stim13_sf2_pattern2_cont1_shape2.png	0	126	0	246.923894540243	247.023887590294	0.0999930500511255	stim13_sf2_pattern2_cont1_shape2.png	2	2	1	2	1	2	0	0	0	0	0	0	0	0	0	0	0	0	1	15
212.29736328125	0.0999951027788484	434785	127	0	stim00_sf1_pattern1_cont1_shape1.png	0	127	0	247.42388442323	247.523879526008	0.0999951027788484	stim00_sf1_pattern1_cont1_shape1.png	1	1	1	1	1	1	0	0	0	0	0	0	0	0	0	0	0	0	1	15
212.79736328125	0.0999986217393598	435809	128	4	stim04_sf1_pattern2_cont1_shape1.png	0	128	0	247.923874306216	248.023872927955	0.0999986217393598	stim04_sf1_pattern2_cont1_shape1.png	1	2	1	1	1	1	0	0	0	0	0	0	0	0	0	0	0	0	1	15
213.29736328125	0.0999980352462444	436833	129	12	stim12_sf2_pattern2_cont1_shape1.png	0	129	0	248.423868294656	248.523866329902	0.0999980352462444	stim12_sf2_pattern2_cont1_shape1.png	2	2	1	1	1	2	0	0	0	0	0	0	0	0	0	0	0	0	1	15
213.79736328125	0.0999997947274096	437857	130	7	stim07_sf1_pattern2_cont2_shape2.png	0	130	0	248.923859937122	249.023859731849	0.0999997947274096	stim07_sf1_pattern2_cont2_shape2.png	1	2	2	2	1	3	0	0	0	0	0	0	0	0	0	0	0	0	1	15
214.29736328125	0.099972816022273	438881	131	5	stim05_sf1_pattern2_cont1_shape2.png	0	131	0	249.423854805304	249.523827621326	0.099972816022273	stim05_sf1_pattern2_cont1_shape2.png	1	2	1	2	1	1	0	0	0	0	0	0	0	0	0	0	0	0	1	15
214.79736328125	0.0999924635580101	439905	132	8	stim08_sf2_pattern1_cont1_shape1.png	0	132	0	249.923849966732	250.02384243029	0.0999924635580101	stim08_sf2_pattern1_cont1_shape1.png	2	1	1	1	1	2	0	0	0	0	0	0	0	0	0	0	0	0	1	15
215.29736328125	0.100036450576226	440929	133	11	stim11_sf2_pattern1_cont2_shape2.png	0	133	0	250.423798208672	250.523834659249	0.100036450576226	stim11_sf2_pattern1_cont2_shape2.png	2	1	2	2	1	4	0	0	0	0	0	0	0	0	0	0	0	0	1	15
215.79736328125	0.0999936365442409	441953	134	15	stim15_sf2_pattern2_cont2_shape2.png	0	134	0	250.923832078677	251.023825715221	0.0999936365442409	stim15_sf2_pattern2_cont2_shape2.png	2	2	2	2	1	4	0	0	0	0	0	0	0	0	0	0	0	0	1	15
216.29736328125	0.0999977419996867	442977	135	10	stim10_sf2_pattern1_cont2_shape1.png	0	135	0	251.423822841403	251.523820583403	0.0999977419996867	stim10_sf2_pattern1_cont2_shape1.png	2	1	2	1	1	4	0	0	0	0	0	0	0	0	0	0	0	0	1	15
216.79736328125	0.0999731092688307	444001	136	7	stim07_sf1_pattern2_cont2_shape2.png	0	136	0	251.923815950104	252.023789059373	0.0999731092688307	stim07_sf1_pattern2_cont2_shape2.png	1	2	2	2	1	3	0	0	0	0	0	0	0	0	0	0	0	0	1	15
217.29736328125	0.0999475968001207	445025	137	4	stim04_sf1_pattern2_cont1_shape1.png	0	137	0	252.423835157768	252.523782754568	0.0999475968001207	stim04_sf1_pattern2_cont1_shape1.png	1	2	1	1	1	1	0	0	0	0	0	0	0	0	0	0	0	0	1	15
217.79736328125	0.0999977419996867	446049	138	3	stim03_sf1_pattern1_cont2_shape2.png	0	138	0	252.923798941791	253.02379668379	0.0999977419996867	stim03_sf1_pattern1_cont2_shape2.png	1	1	2	2	1	3	0	0	0	0	0	0	0	0	0	0	0	0	1	15
218.29736328125	0.0999648983597581	447073	139	9	stim09_sf2_pattern1_cont1_shape2.png	0	139	0	253.423804366856	253.523769265215	0.0999648983597581	stim09_sf2_pattern1_cont1_shape2.png	2	1	1	2	1	2	0	0	0	0	0	0	0	0	0	0	0	0	1	15
218.79736328125	0.0999707632945501	448097	140	0	stim00_sf1_pattern1_cont1_shape1.png	0	140	0	253.923788091659	254.023758854953	0.0999707632945501	stim00_sf1_pattern1_cont1_shape1.png	1	1	1	1	1	1	0	0	0	0	0	0	0	0	0	0	0	0	1	15
219.29736328125	0.0999824931659532	449121	141	15	stim15_sf2_pattern2_cont2_shape2.png	0	141	0	254.423777974645	254.523760467811	0.0999824931659532	stim15_sf2_pattern2_cont2_shape2.png	2	2	2	2	1	4	0	0	0	0	0	0	0	0	0	0	0	0	1	15
219.79736328125	0.099983666154003	450145	142	2	stim02_sf1_pattern1_cont2_shape1.png	0	142	0	254.923759353473	255.023743019627	0.099983666154003	stim02_sf1_pattern1_cont2_shape1.png	1	1	2	1	1	3	0	0	0	0	0	0	0	0	0	0	0	0	1	15
220.29736328125	0.0999953960254061	451169	143	1	stim01_sf1_pattern1_cont1_shape2.png	0	143	0	255.423740145809	255.523735541834	0.0999953960254061	stim01_sf1_pattern1_cont1_shape2.png	1	1	1	2	1	1	0	0	0	0	0	0	0	0	0	0	0	0	1	15
220.79736328125	0.100024134209889	452193	144	6	stim06_sf1_pattern2_cont2_shape1.png	0	144	0	255.923709794766	256.023733928976	0.100024134209889	stim06_sf1_pattern2_cont2_shape1.png	1	2	2	1	1	3	0	0	0	0	0	0	0	0	0	0	0	0	1	15
221.29736328125	0.0999736957619461	453217	145	5	stim05_sf1_pattern2_cont1_shape2.png	0	145	0	256.423732228146	256.523705923908	0.0999736957619461	stim05_sf1_pattern2_cont1_shape2.png	1	2	1	2	1	1	0	0	0	0	0	0	0	0	0	0	0	0	1	15
221.79736328125	0.0999907040768448	454241	146	14	stim14_sf2_pattern2_cont2_shape1.png	0	146	0	256.923730908535	257.023721612612	0.0999907040768448	stim14_sf2_pattern2_cont2_shape1.png	2	2	2	1	1	4	0	0	0	0	0	0	0	0	0	0	0	0	1	15
222.29736328125	0.100015923300816	455265	147	11	stim11_sf2_pattern1_cont2_shape2.png	0	147	0	257.423700557492	257.523716480793	0.100015923300816	stim11_sf2_pattern1_cont2_shape2.png	2	1	2	2	1	4	0	0	0	0	0	0	0	0	0	0	0	0	1	15
222.79736328125	0.099997448753129	456289	148	12	stim12_sf2_pattern2_cont1_shape1.png	0	148	0	257.923733841002	258.023731289755	0.099997448753129	stim12_sf2_pattern2_cont1_shape1.png	2	2	1	1	1	2	0	0	0	0	0	0	0	0	0	0	0	0	1	15
223.29736328125	0.100025600446315	457313	149	13	stim13_sf2_pattern2_cont1_shape2.png	0	149	0	258.423697331777	258.523722932223	0.100025600446315	stim13_sf2_pattern2_cont1_shape2.png	2	2	1	2	1	2	0	0	0	0	0	0	0	0	0	0	0	0	1	15
223.79736328125	0.0999880648560065	458337	150	10	stim10_sf2_pattern1_cont2_shape1.png	0	150	0	258.923715659701	259.023703724557	0.0999880648560065	stim10_sf2_pattern1_cont2_shape1.png	2	1	2	1	1	4	0	0	0	0	0	0	0	0	0	0	0	0	1	15
224.29736328125	0.0999959825185215	459361	151	8	stim08_sf2_pattern1_cont1_shape1.png	0	151	0	259.423702903467	259.523698885985	0.0999959825185215	stim08_sf2_pattern1_cont1_shape1.png	2	1	1	1	1	2	0	0	0	0	0	0	0	0	0	0	0	0	1	15
224.79736328125	0.0999593266697048	460385	152	11	stim11_sf2_pattern1_cont2_shape2.png	0	152	0	259.923694252686	260.023653579356	0.0999593266697048	stim11_sf2_pattern1_cont2_shape2.png	2	1	2	2	1	4	0	0	0	0	0	0	0	0	0	0	0	0	1	15
225.29736328125	0.0999889445956796	461409	153	1	stim01_sf1_pattern1_cont1_shape2.png	0	153	0	260.423696452037	260.523685396633	0.0999889445956796	stim01_sf1_pattern1_cont1_shape2.png	1	1	1	2	1	1	0	0	0	0	0	0	0	0	0	0	0	0	1	15
225.79736328125	0.100000381220525	462433	154	9	stim09_sf2_pattern1_cont1_shape2.png	0	154	0	260.923677244373	261.023677625593	0.100000381220525	stim09_sf2_pattern1_cont1_shape2.png	2	1	1	2	1	2	0	0	0	0	0	0	0	0	0	0	0	0	1	15
226.29736328125	0.0999968622600136	463457	155	14	stim14_sf2_pattern2_cont2_shape1.png	0	155	0	261.423669473332	261.523666335592	0.0999968622600136	stim14_sf2_pattern2_cont2_shape1.png	2	2	2	1	1	4	0	0	0	0	0	0	0	0	0	0	0	0	1	15
226.79736328125	0.100002727194806	464481	156	6	stim06_sf1_pattern2_cont2_shape1.png	0	156	0	261.923648799433	262.023651526628	0.100002727194806	stim06_sf1_pattern2_cont2_shape1.png	1	2	2	1	1	3	0	0	0	0	0	0	0	0	0	0	0	0	1	15
227.29736328125	0.0999939297907986	465505	157	12	stim12_sf2_pattern2_cont1_shape1.png	0	157	0	262.423659502942	262.523653432732	0.0999939297907986	stim12_sf2_pattern2_cont1_shape1.png	2	2	1	1	1	2	0	0	0	0	0	0	0	0	0	0	0	0	1	15
227.796875	0.099994516285733	466528	158	2	stim02_sf1_pattern1_cont2_shape1.png	0	158	0	262.923651145407	263.023645661693	0.099994516285733	stim02_sf1_pattern1_cont2_shape1.png	1	1	2	1	1	3	0	0	0	0	0	0	0	0	0	0	0	0	1	15
228.296875	0.100003900182855	467552	159	10	stim10_sf2_pattern1_cont2_shape1.png	0	159	0	263.423634870211	263.523638770394	0.100003900182855	stim10_sf2_pattern1_cont2_shape1.png	2	1	2	1	1	4	0	0	0	0	0	0	0	0	0	0	0	0	1	15
228.796875	0.099997448753129	468576	160	15	stim15_sf2_pattern2_cont2_shape2.png	0	160	0	263.923632084367	264.02362953312	0.099997448753129	stim15_sf2_pattern2_cont2_shape2.png	2	2	2	2	1	4	0	0	0	0	0	0	0	0	0	0	0	0	1	15
229.296875	0.0999989149877365	469600	161	4	stim04_sf1_pattern2_cont1_shape1.png	0	161	0	264.423623433586	264.523622348574	0.0999989149877365	stim04_sf1_pattern2_cont1_shape1.png	1	2	1	1	1	1	0	0	0	0	0	0	0	0	0	0	0	0	1	15
229.796875	0.0999971555065713	470624	162	5	stim05_sf1_pattern2_cont1_shape2.png	0	162	0	264.923616835533	265.023613991039	0.0999971555065713	stim05_sf1_pattern2_cont1_shape2.png	1	2	1	2	1	1	0	0	0	0	0	0	0	0	0	0	0	0	1	15
230.296875	0.0999745755034382	471648	163	3	stim03_sf1_pattern1_cont2_shape2.png	0	163	0	265.423608478	265.523583053504	0.0999745755034382	stim03_sf1_pattern1_cont2_shape2.png	1	1	2	2	1	3	0	0	0	0	0	0	0	0	0	0	0	0	1	15
230.796875	0.0999986217411788	472672	164	8	stim08_sf2_pattern1_cont1_shape1.png	0	164	0	265.923602759687	266.023601381428	0.0999986217411788	stim08_sf2_pattern1_cont1_shape1.png	2	1	1	1	1	2	0	0	0	0	0	0	0	0	0	0	0	0	1	15
231.296875	0.0999989149859175	473696	165	7	stim07_sf1_pattern2_cont2_shape2.png	0	165	0	266.42359293592	266.523591850906	0.0999989149859175	stim07_sf1_pattern2_cont2_shape2.png	1	2	2	2	1	3	0	0	0	0	0	0	0	0	0	0	0	0	1	15
231.796875	0.10000096771364	474720	166	13	stim13_sf2_pattern2_cont1_shape2.png	0	166	0	266.923585458127	267.023586425841	0.10000096771364	stim13_sf2_pattern2_cont1_shape2.png	2	2	1	2	1	2	0	0	0	0	0	0	0	0	0	0	0	0	1	15
232.296875	0.0999722295291576	475744	167	0	stim00_sf1_pattern1_cont1_shape1.png	0	167	0	267.42358648449	267.52355871402	0.0999722295291576	stim00_sf1_pattern1_cont1_shape1.png	1	1	1	1	1	1	0	0	0	0	0	0	0	0	0	0	0	0	1	15
264.53759765625	0.099989531088795	541773	168	8	stim08_sf2_pattern1_cont1_shape1.png	1	0	0	299.664768480194	299.764758011283	0.099989531088795	stim08_sf2_pattern1_cont1_shape1.png	2	1	1	1	1	2	0	0	0	0	0	0	0	0	0	0	0	0	1	15
265.03759765625	0.1000299991465	542797	169	4	stim04_sf1_pattern2_cont1_shape1.png	1	1	0	300.164697367847	300.264727366994	0.1000299991465	stim04_sf1_pattern2_cont1_shape1.png	1	2	1	1	1	1	0	0	0	0	0	0	0	0	0	0	0	0	1	15
265.53759765625	0.099975748491488	543821	170	1	stim01_sf1_pattern1_cont1_shape2.png	1	2	0	300.664740035254	300.764715783745	0.099975748491488	stim01_sf1_pattern1_cont1_shape2.png	1	1	1	2	1	1	0	0	0	0	0	0	0	0	0	0	0	0	1	15
266.03759765625	0.0999783877105074	544845	171	2	stim02_sf1_pattern1_cont2_shape1.png	1	3	0	301.164731677722	301.264710065432	0.0999783877105074	stim02_sf1_pattern1_cont2_shape1.png	1	1	2	1	1	3	0	0	0	0	0	0	0	0	0	0	0	0	1	15
266.53759765625	0.0999989149877365	545869	172	5	stim05_sf1_pattern2_cont1_shape2.png	1	4	0	301.664723906681	301.764722821668	0.0999989149877365	stim05_sf1_pattern2_cont1_shape2.png	1	2	1	2	1	1	0	0	0	0	0	0	0	0	0	0	0	0	1	15
267.03759765625	0.100017389535424	546893	173	3	stim03_sf1_pattern1_cont2_shape2.png	1	5	0	302.164680066286	302.264697455821	0.100017389535424	stim03_sf1_pattern1_cont2_shape2.png	1	1	2	2	1	3	0	0	0	0	0	0	0	0	0	0	0	0	1	15
267.53759765625	0.0999977419996867	547917	174	9	stim09_sf2_pattern1_cont1_shape2.png	1	6	0	302.664709244342	302.764706986341	0.0999977419996867	stim09_sf2_pattern1_cont1_shape2.png	2	1	1	2	1	2	0	0	0	0	0	0	0	0	0	0	0	0	1	15
268.03759765625	0.100017096287047	548941	175	11	stim11_sf2_pattern1_cont2_shape2.png	1	7	0	303.164681825767	303.264698922054	0.100017096287047	stim11_sf2_pattern1_cont2_shape2.png	2	1	2	2	1	4	0	0	0	0	0	0	0	0	0	0	0	0	1	15
268.53759765625	0.0999971555065713	549965	176	10	stim10_sf2_pattern1_cont2_shape1.png	1	8	0	303.664693995508	303.764691151015	0.0999971555065713	stim10_sf2_pattern1_cont2_shape1.png	2	1	2	1	1	4	0	0	0	0	0	0	0	0	0	0	0	0	1	15
269.03759765625	0.100017096287047	550989	177	0	stim00_sf1_pattern1_cont1_shape1.png	1	9	0	304.164652207841	304.264669304128	0.100017096287047	stim00_sf1_pattern1_cont1_shape1.png	1	1	1	1	1	1	0	0	0	0	0	0	0	0	0	0	0	0	1	15
269.53759765625	0.0999948095322907	552013	178	6	stim06_sf1_pattern2_cont2_shape1.png	1	10	0	304.664679626416	304.764674435948	0.0999948095322907	stim06_sf1_pattern2_cont2_shape1.png	1	2	2	1	1	3	0	0	0	0	0	0	0	0	0	0	0	0	1	15
270.03759765625	0.100012404338486	553037	179	14	stim14_sf2_pattern2_cont2_shape1.png	1	11	0	305.164633440047	305.264645844385	0.100012404338486	stim14_sf2_pattern2_cont2_shape1.png	2	2	2	1	1	4	0	0	0	0	0	0	0	0	0	0	0	0	1	15
270.53759765625	0.0999948095322907	554061	180	15	stim15_sf2_pattern2_cont2_shape2.png	1	12	0	305.66466555057	305.764660360102	0.0999948095322907	stim15_sf2_pattern2_cont2_shape2.png	2	2	2	2	1	4	0	0	0	0	0	0	0	0	0	0	0	0	1	15
271.03759765625	0.0999824931677722	555085	181	7	stim07_sf1_pattern2_cont2_shape2.png	1	13	0	306.164655433555	306.264637926723	0.0999824931677722	stim07_sf1_pattern2_cont2_shape2.png	1	2	2	2	1	3	0	0	0	0	0	0	0	0	0	0	0	0	1	15
271.53759765625	0.100003900182855	556109	182	13	stim13_sf2_pattern2_cont1_shape2.png	1	14	0	306.664631240696	306.764635140878	0.100003900182855	stim13_sf2_pattern2_cont1_shape2.png	2	2	1	2	1	2	0	0	0	0	0	0	0	0	0	0	0	0	1	15
272.03759765625	0.0999989149877365	557133	183	12	stim12_sf2_pattern2_cont1_shape1.png	1	15	0	307.164620243941	307.264619158928	0.0999989149877365	stim12_sf2_pattern2_cont1_shape1.png	2	2	1	1	1	2	0	0	0	0	0	0	0	0	0	0	0	0	1	15
272.53759765625	0.100013284078159	558157	184	13	stim13_sf2_pattern2_cont1_shape2.png	1	16	0	307.66460074303	307.764614027108	0.100013284078159	stim13_sf2_pattern2_cont1_shape2.png	2	2	1	2	1	2	0	0	0	0	0	0	0	0	0	0	0	0	1	15
273.03759765625	0.0999813201797224	559181	185	15	stim15_sf2_pattern2_cont2_shape2.png	1	17	0	308.164622296668	308.264603616848	0.0999813201797224	stim15_sf2_pattern2_cont2_shape2.png	2	2	2	2	1	4	0	0	0	0	0	0	0	0	0	0	0	0	1	15
273.53759765625	0.0999962757650792	560205	186	6	stim06_sf1_pattern2_cont2_shape1.png	1	18	0	308.664615698615	308.76461197438	0.0999962757650792	stim06_sf1_pattern2_cont2_shape1.png	1	2	2	1	1	3	0	0	0	0	0	0	0	0	0	0	0	0	1	15
274.03759765625	0.100038210057392	561229	187	9	stim09_sf2_pattern1_cont1_shape2.png	1	19	0	309.164570391986	309.264608602043	0.100038210057392	stim09_sf2_pattern1_cont1_shape2.png	2	1	1	2	1	2	0	0	0	0	0	0	0	0	0	0	0	0	1	15
274.53759765625	0.10001181784537	562253	188	11	stim11_sf2_pattern1_cont2_shape2.png	1	20	0	309.664565553414	309.764577371259	0.10001181784537	stim11_sf2_pattern1_cont2_shape2.png	2	1	2	2	1	4	0	0	0	0	0	0	0	0	0	0	0	0	1	15
275.03759765625	0.0999690038133849	563277	189	5	stim05_sf1_pattern2_cont1_shape2.png	1	21	0	310.164563940558	310.264532944371	0.0999690038133849	stim05_sf1_pattern2_cont1_shape2.png	1	2	1	2	1	1	0	0	0	0	0	0	0	0	0	0	0	0	1	15
275.53759765625	0.100003020441363	564301	190	7	stim07_sf1_pattern2_cont2_shape2.png	1	22	0	310.664545612633	310.764548633075	0.100003020441363	stim07_sf1_pattern2_cont2_shape2.png	1	2	2	2	1	3	0	0	0	0	0	0	0	0	0	0	0	0	1	15
276.03759765625	0.100006539403694	565325	191	2	stim02_sf1_pattern1_cont2_shape1.png	1	23	0	311.164536082111	311.264542621515	0.100006539403694	stim02_sf1_pattern1_cont2_shape1.png	1	1	2	1	1	3	0	0	0	0	0	0	0	0	0	0	0	0	1	15
276.53759765625	0.10005052642191	566349	192	12	stim12_sf2_pattern2_cont1_shape1.png	1	24	0	311.664503091848	311.76455361827	0.10005052642191	stim12_sf2_pattern2_cont1_shape1.png	2	2	1	1	1	2	0	0	0	0	0	0	0	0	0	0	0	0	1	15
277.03759765625	0.100004193429413	567373	193	4	stim04_sf1_pattern2_cont1_shape1.png	1	25	0	312.164525525228	312.264529718657	0.100004193429413	stim04_sf1_pattern2_cont1_shape1.png	1	2	1	1	1	1	0	0	0	0	0	0	0	0	0	0	0	0	1	15
277.53759765625	0.0999909973234026	568397	194	14	stim14_sf2_pattern2_cont2_shape1.png	1	26	0	312.664548838347	312.764539835671	0.0999909973234026	stim14_sf2_pattern2_cont2_shape1.png	2	2	2	1	1	4	0	0	0	0	0	0	0	0	0	0	0	0	1	15
278.03759765625	0.0999848391402338	569421	195	3	stim03_sf1_pattern1_cont2_shape2.png	1	27	0	313.164535202372	313.264520041512	0.0999848391402338	stim03_sf1_pattern1_cont2_shape2.png	1	1	2	2	1	3	0	0	0	0	0	0	0	0	0	0	0	0	1	15
278.53759765625	0.0999792674519995	570445	196	0	stim00_sf1_pattern1_cont1_shape1.png	1	28	0	313.664531536786	313.764510804238	0.0999792674519995	stim00_sf1_pattern1_cont1_shape1.png	1	1	1	1	1	1	0	0	0	0	0	0	0	0	0	0	0	0	1	15
279.037109375	0.100012990831601	571468	197	1	stim01_sf1_pattern1_cont1_shape2.png	1	29	0	314.164523179254	314.264536170085	0.100012990831601	stim01_sf1_pattern1_cont1_shape2.png	1	1	1	2	1	1	0	0	0	0	0	0	0	0	0	0	0	0	1	15
279.537109375	0.0999930500511255	572492	198	10	stim10_sf2_pattern1_cont2_shape1.png	1	30	0	314.66454033419	314.764533384241	0.0999930500511255	stim10_sf2_pattern1_cont2_shape1.png	2	1	2	1	1	4	0	0	0	0	0	0	0	0	0	0	0	0	1	15
280.037109375	0.0999918770630757	573516	199	8	stim08_sf2_pattern1_cont1_shape1.png	1	31	0	315.164486230158	315.264478107221	0.0999918770630757	stim08_sf2_pattern1_cont1_shape1.png	2	1	1	1	1	2	0	0	0	0	0	0	0	0	0	0	0	0	1	15
280.537109375	0.0999971555047523	574540	200	3	stim03_sf1_pattern1_cont2_shape2.png	1	32	0	315.664511302759	315.764508458264	0.0999971555047523	stim03_sf1_pattern1_cont2_shape2.png	1	1	2	2	1	3	0	0	0	0	0	0	0	0	0	0	0	0	1	15
281.037109375	0.099628544290681	575564	201	15	stim15_sf2_pattern2_cont2_shape2.png	1	33	0	316.16487331592	316.264501860211	0.099628544290681	stim15_sf2_pattern2_cont2_shape2.png	2	2	2	2	1	4	0	0	0	0	0	0	0	0	0	0	0	0	1	15
281.537109375	0.100009765117647	576588	202	12	stim12_sf2_pattern2_cont1_shape1.png	1	34	0	316.664482857819	316.764492622937	0.100009765117647	stim12_sf2_pattern2_cont1_shape1.png	2	2	1	1	1	2	0	0	0	0	0	0	0	0	0	0	0	0	1	15
282.037109375	0.100017389535424	577612	203	8	stim08_sf2_pattern1_cont1_shape1.png	1	35	0	317.164453679763	317.264471069298	0.100017389535424	stim08_sf2_pattern1_cont1_shape1.png	2	1	1	1	1	2	0	0	0	0	0	0	0	0	0	0	0	0	1	15
282.537109375	0.100000674467083	578636	204	4	stim04_sf1_pattern2_cont1_shape1.png	1	36	0	317.664480511845	317.764481186312	0.100000674467083	stim04_sf1_pattern2_cont1_shape1.png	1	2	1	1	1	1	0	0	0	0	0	0	0	0	0	0	0	0	1	15
283.037109375	0.099994516283914	579660	205	5	stim05_sf1_pattern2_cont1_shape2.png	1	37	0	318.164456318986	318.26445083527	0.099994516283914	stim05_sf1_pattern2_cont1_shape2.png	1	2	1	2	1	1	0	0	0	0	0	0	0	0	0	0	0	0	1	15
283.537109375	0.100003020441363	580684	206	6	stim06_sf1_pattern2_cont2_shape1.png	1	38	0	318.664463503532	318.764466523973	0.100003020441363	stim06_sf1_pattern2_cont2_shape1.png	1	2	2	1	1	3	0	0	0	0	0	0	0	0	0	0	0	0	1	15
284.037109375	0.100015336805882	581708	207	14	stim14_sf2_pattern2_cont2_shape1.png	1	39	0	319.164440483659	319.264455820465	0.100015336805882	stim14_sf2_pattern2_cont2_shape1.png	2	2	2	1	1	4	0	0	0	0	0	0	0	0	0	0	0	0	1	15
284.537109375	0.100000087973967	582732	208	11	stim11_sf2_pattern1_cont2_shape2.png	1	40	0	319.664432419371	319.764432507345	0.100000087973967	stim11_sf2_pattern1_cont2_shape2.png	2	1	2	2	1	4	0	0	0	0	0	0	0	0	0	0	0	0	1	15
285.037109375	0.100000381220525	583756	209	13	stim13_sf2_pattern2_cont1_shape2.png	1	41	0	320.164423475344	320.264423856564	0.100000381220525	stim13_sf2_pattern2_cont1_shape2.png	2	2	1	2	1	2	0	0	0	0	0	0	0	0	0	0	0	0	1	15
285.537109375	0.10000331368974	584780	210	9	stim09_sf2_pattern1_cont1_shape2.png	1	42	0	320.664430073397	320.764433387087	0.10000331368974	stim09_sf2_pattern1_cont1_shape2.png	2	1	1	2	1	2	0	0	0	0	0	0	0	0	0	0	0	0	1	15
286.037109375	0.0999660713459889	585804	211	0	stim00_sf1_pattern1_cont1_shape1.png	1	43	0	321.164408226512	321.264374297858	0.0999660713459889	stim00_sf1_pattern1_cont1_shape1.png	1	1	1	1	1	1	0	0	0	0	0	0	0	0	0	0	0	0	1	15
286.537109375	0.0999977419996867	586828	212	10	stim10_sf2_pattern1_cont2_shape1.png	1	44	0	321.664418636772	321.764416378772	0.0999977419996867	stim10_sf2_pattern1_cont2_shape1.png	2	1	2	1	1	4	0	0	0	0	0	0	0	0	0	0	0	0	1	15
287.037109375	0.100026480185988	587852	213	2	stim02_sf1_pattern1_cont2_shape1.png	1	45	0	322.164381541053	322.264408021239	0.100026480185988	stim02_sf1_pattern1_cont2_shape1.png	1	1	2	1	1	3	0	0	0	0	0	0	0	0	0	0	0	0	1	15
287.537109375	0.100000087973967	588876	214	1	stim01_sf1_pattern1_cont1_shape2.png	1	46	0	322.664404854173	322.764404942147	0.100000087973967	stim01_sf1_pattern1_cont1_shape2.png	1	1	1	2	1	1	0	0	0	0	0	0	0	0	0	0	0	0	1	15
288.037109375	0.100003020443182	589900	215	7	stim07_sf1_pattern2_cont2_shape2.png	1	47	0	323.164373330143	323.264376350586	0.100003020443182	stim07_sf1_pattern2_cont2_shape2.png	1	2	2	2	1	3	0	0	0	0	0	0	0	0	0	0	0	0	1	15
288.537109375	0.099980733684788	590924	216	3	stim03_sf1_pattern1_cont2_shape2.png	1	48	0	323.664394883783	323.764375617468	0.099980733684788	stim03_sf1_pattern1_cont2_shape2.png	1	1	2	2	1	3	0	0	0	0	0	0	0	0	0	0	0	0	1	15
289.037109375	0.100019442263147	591948	217	4	stim04_sf1_pattern2_cont1_shape1.png	1	49	0	324.164340486503	324.264359928766	0.100019442263147	stim04_sf1_pattern2_cont1_shape1.png	1	2	1	1	1	1	0	0	0	0	0	0	0	0	0	0	0	0	1	15
289.537109375	0.0999883581025642	592972	218	1	stim01_sf1_pattern1_cont1_shape2.png	1	50	0	324.664346791309	324.764335149412	0.0999883581025642	stim01_sf1_pattern1_cont1_shape2.png	1	1	1	2	1	1	0	0	0	0	0	0	0	0	0	0	0	0	1	15
290.037109375	0.0999736957619461	593996	219	13	stim13_sf2_pattern2_cont1_shape2.png	1	51	0	325.164333155333	325.264306851095	0.0999736957619461	stim13_sf2_pattern2_cont1_shape2.png	2	2	1	2	1	2	0	0	0	0	0	0	0	0	0	0	0	0	1	15
290.537109375	0.0999995014808519	595020	220	14	stim14_sf2_pattern2_cont2_shape1.png	1	52	0	325.664312774681	325.764312276162	0.0999995014808519	stim14_sf2_pattern2_cont2_shape1.png	2	2	2	1	1	4	0	0	0	0	0	0	0	0	0	0	0	0	1	15
291.037109375	0.100004193429413	596044	221	11	stim11_sf2_pattern1_cont2_shape2.png	1	53	0	326.164299431952	326.264303625381	0.100004193429413	stim11_sf2_pattern1_cont2_shape2.png	2	1	2	2	1	4	0	0	0	0	0	0	0	0	0	0	0	0	1	15
291.537109375	0.0999980352480634	597068	222	6	stim06_sf1_pattern2_cont2_shape1.png	1	54	0	326.664299871822	326.76429790707	0.0999980352480634	stim06_sf1_pattern2_cont2_shape1.png	1	2	2	1	1	3	0	0	0	0	0	0	0	0	0	0	0	0	1	15
292.037109375	0.100017682781981	598092	223	0	stim00_sf1_pattern1_cont1_shape1.png	1	55	0	327.164278318183	327.264296000965	0.100017682781981	stim00_sf1_pattern1_cont1_shape1.png	1	1	1	1	1	1	0	0	0	0	0	0	0	0	0	0	0	0	1	15
292.537109375	0.100006832650251	599116	224	8	stim08_sf2_pattern1_cont1_shape1.png	1	56	0	327.66431013546	327.764316968111	0.100006832650251	stim08_sf2_pattern1_cont1_shape1.png	2	1	1	1	1	2	0	0	0	0	0	0	0	0	0	0	0	0	1	15
293.037109375	0.0999757484896691	600140	225	9	stim09_sf2_pattern1_cont1_shape2.png	1	57	0	328.164311748318	328.264287496808	0.0999757484896691	stim09_sf2_pattern1_cont1_shape2.png	2	1	1	2	1	2	0	0	0	0	0	0	0	0	0	0	0	0	1	15
293.537109375	0.100004193429413	601164	226	2	stim02_sf1_pattern1_cont2_shape1.png	1	58	0	328.66429459338	328.764298786809	0.100004193429413	stim02_sf1_pattern1_cont2_shape1.png	1	1	2	1	1	3	0	0	0	0	0	0	0	0	0	0	0	0	1	15
294.04541015625	0.100010938105697	602205	227	7	stim07_sf1_pattern2_cont2_shape2.png	1	59	0	329.172607993263	329.272618931369	0.100010938105697	stim07_sf1_pattern2_cont2_shape2.png	1	2	2	2	1	3	0	0	0	0	0	0	0	0	0	0	0	0	1	15
294.54541015625	0.0999962757650792	603229	228	10	stim10_sf2_pattern1_cont2_shape1.png	1	60	0	329.672610485861	329.772606761626	0.0999962757650792	stim10_sf2_pattern1_cont2_shape1.png	2	1	2	1	1	4	0	0	0	0	0	0	0	0	0	0	0	0	1	15
295.04541015625	0.0999731092688307	604253	229	5	stim05_sf1_pattern2_cont1_shape2.png	1	61	0	330.172592451183	330.272565560452	0.0999731092688307	stim05_sf1_pattern2_cont1_shape2.png	1	2	1	2	1	1	0	0	0	0	0	0	0	0	0	0	0	0	1	15
295.54541015625	0.0999376264080638	605277	230	15	stim15_sf2_pattern2_cont2_shape2.png	1	62	0	330.672621922486	330.772559548894	0.0999376264080638	stim15_sf2_pattern2_cont2_shape2.png	2	2	2	2	1	4	0	0	0	0	0	0	0	0	0	0	0	0	1	15
296.04541015625	0.099964018620085	606301	231	12	stim12_sf2_pattern2_cont1_shape1.png	1	63	0	331.172585999753	331.272550018373	0.099964018620085	stim12_sf2_pattern2_cont1_shape1.png	2	2	1	1	1	2	0	0	0	0	0	0	0	0	0	0	0	0	1	15
296.54541015625	0.0999760417362268	607325	232	3	stim03_sf1_pattern1_cont2_shape2.png	1	64	0	331.672577935467	331.772553977204	0.0999760417362268	stim03_sf1_pattern1_cont2_shape2.png	1	1	2	2	1	3	0	0	0	0	0	0	0	0	0	0	0	0	1	15
297.04541015625	0.0999871851145144	608349	233	2	stim02_sf1_pattern1_cont2_shape1.png	1	65	0	332.172560194036	332.272547379151	0.0999871851145144	stim02_sf1_pattern1_cont2_shape1.png	1	1	2	1	1	3	0	0	0	0	0	0	0	0	0	0	0	0	1	15
297.54541015625	0.0999965690116369	609373	234	4	stim04_sf1_pattern2_cont1_shape1.png	1	66	0	332.67256943131	332.772566000322	0.0999965690116369	stim04_sf1_pattern2_cont1_shape1.png	1	2	1	1	1	1	0	0	0	0	0	0	0	0	0	0	0	0	1	15
298.044921875	0.100010351610763	610396	235	7	stim07_sf1_pattern2_cont2_shape2.png	1	67	0	333.172545531697	333.272555883308	0.100010351610763	stim07_sf1_pattern2_cont2_shape2.png	1	2	2	2	1	3	0	0	0	0	0	0	0	0	0	0	0	0	1	15
298.544921875	0.0999992082342942	611420	236	0	stim00_sf1_pattern1_cont1_shape1.png	1	68	0	333.672552129749	333.772551337983	0.0999992082342942	stim00_sf1_pattern1_cont1_shape1.png	1	1	1	1	1	1	0	0	0	0	0	0	0	0	0	0	0	0	1	15
299.044921875	0.100012404338486	612444	237	12	stim12_sf2_pattern2_cont1_shape1.png	1	69	0	334.17253057611	334.272542980449	0.100012404338486	stim12_sf2_pattern2_cont1_shape1.png	2	2	1	1	1	2	0	0	0	0	0	0	0	0	0	0	0	0	1	15
299.544921875	0.0999965690134559	613468	238	11	stim11_sf2_pattern1_cont2_shape2.png	1	70	0	334.672565619101	334.772562188115	0.0999965690134559	stim11_sf2_pattern1_cont2_shape2.png	2	1	2	2	1	4	0	0	0	0	0	0	0	0	0	0	0	0	1	15
300.044921875	0.100047300707956	614492	239	9	stim09_sf2_pattern1_cont1_shape2.png	1	71	0	335.172513274549	335.272560575257	0.100047300707956	stim09_sf2_pattern1_cont1_shape2.png	2	1	1	2	1	2	0	0	0	0	0	0	0	0	0	0	0	0	1	15
300.544921875	0.0999772147242766	615516	240	6	stim06_sf1_pattern2_cont2_shape1.png	1	72	0	335.672548610788	335.772525825512	0.0999772147242766	stim06_sf1_pattern2_cont2_shape1.png	1	2	2	1	1	3	0	0	0	0	0	0	0	0	0	0	0	0	1	15
301.044921875	0.099977801217392	616540	241	5	stim05_sf1_pattern2_cont1_shape2.png	1	73	0	336.172535268059	336.272513069276	0.099977801217392	stim05_sf1_pattern2_cont1_shape2.png	1	2	1	2	1	1	0	0	0	0	0	0	0	0	0	0	0	0	1	15
301.544921875	0.100005366415644	617564	242	14	stim14_sf2_pattern2_cont2_shape1.png	1	74	0	336.672528083513	336.772533449928	0.100005366415644	stim14_sf2_pattern2_cont2_shape1.png	2	2	2	1	1	4	0	0	0	0	0	0	0	0	0	0	0	0	1	15
302.044921875	0.100012697586862	618588	243	8	stim08_sf2_pattern1_cont1_shape1.png	1	75	0	337.17248570935	337.272498406937	0.100012697586862	stim08_sf2_pattern1_cont1_shape1.png	2	1	1	1	1	2	0	0	0	0	0	0	0	0	0	0	0	0	1	15
302.544921875	0.100000087973967	619612	244	15	stim15_sf2_pattern2_cont2_shape2.png	1	76	0	337.672511368446	337.77251145642	0.100000087973967	stim15_sf2_pattern2_cont2_shape2.png	2	2	2	2	1	4	0	0	0	0	0	0	0	0	0	0	0	0	1	15
303.044921875	0.0999956892737828	620636	245	1	stim01_sf1_pattern1_cont1_shape2.png	1	77	0	338.172506236626	338.2725019259	0.0999956892737828	stim01_sf1_pattern1_cont1_shape2.png	1	1	1	2	1	1	0	0	0	0	0	0	0	0	0	0	0	0	1	15
303.544921875	0.100010938103878	621660	246	13	stim13_sf2_pattern2_cont1_shape2.png	1	78	0	338.672481457274	338.772492395377	0.100010938103878	stim13_sf2_pattern2_cont1_shape2.png	2	2	1	2	1	2	0	0	0	0	0	0	0	0	0	0	0	0	1	15
304.044921875	0.0999953960254061	622684	247	10	stim10_sf2_pattern1_cont2_shape1.png	1	79	0	339.172472513246	339.272467909272	0.0999953960254061	stim10_sf2_pattern1_cont2_shape1.png	2	1	2	1	1	4	0	0	0	0	0	0	0	0	0	0	0	0	1	15
304.544921875	0.100012111091928	623708	248	15	stim15_sf2_pattern2_cont2_shape2.png	1	80	0	339.672465915193	339.772478026285	0.100012111091928	stim15_sf2_pattern2_cont2_shape2.png	2	2	2	2	1	4	0	0	0	0	0	0	0	0	0	0	0	0	1	15
305.044921875	0.0999716430360422	624732	249	6	stim06_sf1_pattern2_cont2_shape1.png	1	81	0	340.172481017402	340.272452660438	0.0999716430360422	stim06_sf1_pattern2_cont2_shape1.png	1	2	2	1	1	3	0	0	0	0	0	0	0	0	0	0	0	0	1	15
305.544921875	0.100001847455133	625756	250	14	stim14_sf2_pattern2_cont2_shape1.png	1	82	0	340.672448027139	340.772449874594	0.100001847455133	stim14_sf2_pattern2_cont2_shape1.png	2	2	2	1	1	4	0	0	0	0	0	0	0	0	0	0	0	0	1	15
306.044921875	0.0999977419996867	626780	251	13	stim13_sf2_pattern2_cont1_shape2.png	1	83	0	341.172438789865	341.272436531865	0.0999977419996867	stim13_sf2_pattern2_cont1_shape2.png	2	2	1	2	1	2	0	0	0	0	0	0	0	0	0	0	0	0	1	15
306.544921875	0.0999821999193955	627804	252	0	stim00_sf1_pattern1_cont1_shape1.png	1	84	0	341.672448320385	341.772430520305	0.0999821999193955	stim00_sf1_pattern1_cont1_shape1.png	1	1	1	1	1	1	0	0	0	0	0	0	0	0	0	0	0	0	1	15
307.044921875	0.100001847455133	628828	253	8	stim08_sf2_pattern1_cont1_shape1.png	1	85	0	342.172421488303	342.272423335759	0.100001847455133	stim08_sf2_pattern1_cont1_shape1.png	2	1	1	1	1	2	0	0	0	0	0	0	0	0	0	0	0	0	1	15
307.544921875	0.099997448753129	629852	254	3	stim03_sf1_pattern1_cont2_shape2.png	1	86	0	342.67243424454	342.772431693293	0.099997448753129	stim03_sf1_pattern1_cont2_shape2.png	1	1	2	2	1	3	0	0	0	0	0	0	0	0	0	0	0	0	1	15
308.044921875	0.0999977419996867	630876	255	4	stim04_sf1_pattern2_cont1_shape1.png	1	87	0	343.172409758432	343.272407500432	0.0999977419996867	stim04_sf1_pattern2_cont1_shape1.png	1	2	1	1	1	1	0	0	0	0	0	0	0	0	0	0	0	0	1	15
308.544921875	0.0999995014790329	631900	256	1	stim01_sf1_pattern1_cont1_shape2.png	1	88	0	343.672419582201	343.77241908368	0.0999995014790329	stim01_sf1_pattern1_cont1_shape2.png	1	1	1	2	1	1	0	0	0	0	0	0	0	0	0	0	0	0	1	15
309.044921875	0.100011524598813	632924	257	5	stim05_sf1_pattern2_cont1_shape2.png	1	89	0	344.172389231157	344.272400755755	0.100011524598813	stim05_sf1_pattern2_cont1_shape2.png	1	2	1	2	1	1	0	0	0	0	0	0	0	0	0	0	0	0	1	15
309.544921875	0.099972816022273	633948	258	9	stim09_sf2_pattern1_cont1_shape2.png	1	90	0	344.672377354662	344.772350170684	0.099972816022273	stim09_sf2_pattern1_cont1_shape2.png	2	1	1	2	1	2	0	0	0	0	0	0	0	0	0	0	0	0	1	15
310.044921875	0.100045541226791	634972	259	7	stim07_sf1_pattern2_cont2_shape2.png	1	91	0	345.172336446734	345.272381987961	0.100045541226791	stim07_sf1_pattern2_cont2_shape2.png	1	2	2	2	1	3	0	0	0	0	0	0	0	0	0	0	0	0	1	15
310.544921875	0.100021788237427	635996	260	12	stim12_sf2_pattern2_cont1_shape1.png	1	92	0	345.672345097515	345.772366885752	0.100021788237427	stim12_sf2_pattern2_cont1_shape1.png	2	2	1	1	1	2	0	0	0	0	0	0	0	0	0	0	0	0	1	15
311.044921875	0.100020028756262	637020	261	2	stim02_sf1_pattern1_cont2_shape1.png	1	93	0	346.172321784396	346.272341813152	0.100020028756262	stim02_sf1_pattern1_cont2_shape1.png	1	1	2	1	1	3	0	0	0	0	0	0	0	0	0	0	0	0	1	15
311.544921875	0.0999877716076298	638044	262	10	stim10_sf2_pattern1_cont2_shape1.png	1	94	0	346.67233923258	346.772327004188	0.0999877716076298	stim10_sf2_pattern1_cont2_shape1.png	2	1	2	1	1	4	0	0	0	0	0	0	0	0	0	0	0	0	1	15
312.044921875	0.099991583816518	639068	263	11	stim11_sf2_pattern1_cont2_shape2.png	1	95	0	347.172329115565	347.272320699381	0.099991583816518	stim11_sf2_pattern1_cont2_shape2.png	2	1	2	2	1	4	0	0	0	0	0	0	0	0	0	0	0	0	1	15
312.544921875	0.100006832650251	640092	264	3	stim03_sf1_pattern1_cont2_shape2.png	1	96	0	347.672313426861	347.772320259512	0.100006832650251	stim03_sf1_pattern1_cont2_shape2.png	1	1	2	2	1	3	0	0	0	0	0	0	0	0	0	0	0	0	1	15
313.044921875	0.0999995014808519	641116	265	6	stim06_sf1_pattern2_cont2_shape1.png	1	97	0	348.172317385694	348.272316887174	0.0999995014808519	stim06_sf1_pattern2_cont2_shape1.png	1	2	2	1	1	3	0	0	0	0	0	0	0	0	0	0	0	0	1	15
313.544921875	0.100000087973967	642140	266	0	stim00_sf1_pattern1_cont1_shape1.png	1	98	0	348.672323983747	348.772324071721	0.100000087973967	stim00_sf1_pattern1_cont1_shape1.png	1	1	1	1	1	1	0	0	0	0	0	0	0	0	0	0	0	0	1	15
314.044921875	0.100003313687921	643164	267	12	stim12_sf2_pattern2_cont1_shape1.png	1	99	0	349.172317092447	349.272320406135	0.100003313687921	stim12_sf2_pattern2_cont1_shape1.png	2	2	1	1	1	2	0	0	0	0	0	0	0	0	0	0	0	0	1	15
314.544921875	0.100015923300816	644188	268	9	stim09_sf2_pattern1_cont1_shape2.png	1	100	0	349.672314599849	349.77233052315	0.100015923300816	stim09_sf2_pattern1_cont1_shape2.png	2	1	1	2	1	2	0	0	0	0	0	0	0	0	0	0	0	0	1	15
315.044921875	0.100004486675971	645212	269	4	stim04_sf1_pattern2_cont1_shape1.png	1	101	0	350.172305069329	350.272309556005	0.100004486675971	stim04_sf1_pattern2_cont1_shape1.png	1	2	1	1	1	1	0	0	0	0	0	0	0	0	0	0	0	0	1	15
315.54443359375	0.099994516283914	646235	270	7	stim07_sf1_pattern2_cont2_shape2.png	1	102	0	350.672323397253	350.772317913537	0.099994516283914	stim07_sf1_pattern2_cont2_shape2.png	1	2	2	2	1	3	0	0	0	0	0	0	0	0	0	0	0	0	1	15
316.04443359375	0.0999810269313457	647259	271	10	stim10_sf2_pattern1_cont2_shape1.png	1	103	0	351.172284542054	351.272265568985	0.0999810269313457	stim10_sf2_pattern1_cont2_shape1.png	2	1	2	1	1	4	0	0	0	0	0	0	0	0	0	0	0	0	1	15
316.54443359375	0.0999968622600136	648283	272	2	stim02_sf1_pattern1_cont2_shape1.png	1	104	0	351.672297591535	351.772294453795	0.0999968622600136	stim02_sf1_pattern1_cont2_shape1.png	1	1	2	1	1	3	0	0	0	0	0	0	0	0	0	0	0	0	1	15
317.04443359375	0.0999992082342942	649307	273	13	stim13_sf2_pattern2_cont1_shape2.png	1	105	0	352.17227017296	352.272269381194	0.0999992082342942	stim13_sf2_pattern2_cont1_shape2.png	2	2	1	2	1	2	0	0	0	0	0	0	0	0	0	0	0	0	1	15
317.54443359375	0.0999959825185215	650331	274	1	stim01_sf1_pattern1_cont1_shape2.png	1	106	0	352.672281756209	352.772277738728	0.0999959825185215	stim01_sf1_pattern1_cont1_shape2.png	1	1	1	2	1	1	0	0	0	0	0	0	0	0	0	0	0	0	1	15
318.04443359375	0.100025013951381	651355	275	5	stim05_sf1_pattern2_cont1_shape2.png	1	107	0	353.17222999815	353.272255012102	0.100025013951381	stim05_sf1_pattern2_cont1_shape2.png	1	2	1	2	1	1	0	0	0	0	0	0	0	0	0	0	0	0	1	15
318.54443359375	0.100003313687921	652379	276	11	stim11_sf2_pattern1_cont2_shape2.png	1	108	0	353.672265920883	353.772269234571	0.100003313687921	stim11_sf2_pattern1_cont2_shape2.png	2	1	2	2	1	4	0	0	0	0	0	0	0	0	0	0	0	0	1	15
319.04443359375	0.0999959825185215	653403	277	15	stim15_sf2_pattern2_cont2_shape2.png	1	109	0	354.172242021268	354.272238003787	0.0999959825185215	stim15_sf2_pattern2_cont2_shape2.png	2	2	2	2	1	4	0	0	0	0	0	0	0	0	0	0	0	0	1	15
319.54443359375	0.0999924635561911	654427	278	8	stim08_sf2_pattern1_cont1_shape1.png	1	110	0	354.672254484258	354.772246947814	0.0999924635561911	stim08_sf2_pattern1_cont1_shape1.png	2	1	1	1	1	2	0	0	0	0	0	0	0	0	0	0	0	0	1	15
320.04443359375	0.0999918770648947	655451	279	14	stim14_sf2_pattern2_cont2_shape1.png	1	111	0	355.172231171136	355.272223048201	0.0999918770648947	stim14_sf2_pattern2_cont2_shape1.png	2	2	2	1	1	4	0	0	0	0	0	0	0	0	0	0	0	0	1	15
320.54443359375	0.0999936365460599	656475	280	5	stim05_sf1_pattern2_cont1_shape2.png	1	112	0	355.672237769189	355.772231405736	0.0999936365460599	stim05_sf1_pattern2_cont1_shape2.png	1	2	1	2	1	1	0	0	0	0	0	0	0	0	0	0	0	0	1	15
321.04443359375	0.0999989149877365	657499	281	8	stim08_sf2_pattern1_cont1_shape1.png	1	113	0	356.172210643861	356.272209558849	0.0999989149877365	stim08_sf2_pattern1_cont1_shape1.png	2	1	1	1	1	2	0	0	0	0	0	0	0	0	0	0	0	0	1	15
321.54443359375	0.0999983284928021	658523	282	1	stim01_sf1_pattern1_cont1_shape2.png	1	114	0	356.672220174383	356.772218502876	0.0999983284928021	stim01_sf1_pattern1_cont1_shape2.png	1	1	1	2	1	1	0	0	0	0	0	0	0	0	0	0	0	0	1	15
322.04443359375	0.100013870573093	659547	283	7	stim07_sf1_pattern2_cont2_shape2.png	1	115	0	357.172180732689	357.272194603262	0.100013870573093	stim07_sf1_pattern2_cont2_shape2.png	1	2	2	2	1	3	0	0	0	0	0	0	0	0	0	0	0	0	1	15
322.54443359375	0.0999971555047523	660571	284	3	stim03_sf1_pattern1_cont2_shape2.png	1	116	0	357.672206391784	357.772203547289	0.0999971555047523	stim03_sf1_pattern1_cont2_shape2.png	1	1	2	2	1	3	0	0	0	0	0	0	0	0	0	0	0	0	1	15
323.04443359375	0.099977801217392	661595	285	15	stim15_sf2_pattern2_cont2_shape2.png	1	117	0	358.172177800221	358.272155601438	0.099977801217392	stim15_sf2_pattern2_cont2_shape2.png	2	2	2	2	1	4	0	0	0	0	0	0	0	0	0	0	0	0	1	15
323.54443359375	0.0999901175837294	662619	286	0	stim00_sf1_pattern1_cont1_shape1.png	1	118	0	358.672191436197	358.772181553781	0.0999901175837294	stim00_sf1_pattern1_cont1_shape1.png	1	1	1	1	1	1	0	0	0	0	0	0	0	0	0	0	0	0	1	15
324.04443359375	0.100037330317718	663643	287	12	stim12_sf2_pattern2_cont1_shape1.png	1	119	0	359.172148475542	359.272185805859	0.100037330317718	stim12_sf2_pattern2_cont1_shape1.png	2	2	1	1	1	2	0	0	0	0	0	0	0	0	0	0	0	0	1	15
324.54443359375	0.0999959825185215	664667	288	13	stim13_sf2_pattern2_cont1_shape2.png	1	120	0	359.672151847881	359.772147830399	0.0999959825185215	stim13_sf2_pattern2_cont1_shape2.png	2	2	1	2	1	2	0	0	0	0	0	0	0	0	0	0	0	0	1	15
325.04443359375	0.0999892378422373	665691	289	4	stim04_sf1_pattern2_cont1_shape1.png	1	121	0	360.172112112941	360.272101350783	0.0999892378422373	stim04_sf1_pattern2_cont1_shape1.png	1	2	1	1	1	1	0	0	0	0	0	0	0	0	0	0	0	0	1	15
325.54443359375	0.0999951027788484	666715	290	11	stim11_sf2_pattern1_cont2_shape2.png	1	122	0	360.67211724476	360.772112347538	0.0999951027788484	stim11_sf2_pattern1_cont2_shape2.png	2	1	2	2	1	4	0	0	0	0	0	0	0	0	0	0	0	0	1	15
326.04443359375	0.0999845458954951	667739	291	10	stim10_sf2_pattern1_cont2_shape1.png	1	123	0	361.172116218395	361.27210076429	0.0999845458954951	stim10_sf2_pattern1_cont2_shape1.png	2	1	2	1	1	4	0	0	0	0	0	0	0	0	0	0	0	0	1	15
326.54443359375	0.0999959825185215	668763	292	2	stim02_sf1_pattern1_cont2_shape1.png	1	124	0	361.672111379823	361.772107362342	0.0999959825185215	stim02_sf1_pattern1_cont2_shape1.png	1	1	2	1	1	3	0	0	0	0	0	0	0	0	0	0	0	0	1	15
327.04443359375	0.0999901175819105	669787	293	9	stim09_sf2_pattern1_cont1_shape2.png	1	125	0	362.172098623589	362.272088741171	0.0999901175819105	stim09_sf2_pattern1_cont1_shape2.png	2	1	1	2	1	2	0	0	0	0	0	0	0	0	0	0	0	0	1	15
327.54443359375	0.0999995014808519	670811	294	14	stim14_sf2_pattern2_cont2_shape1.png	1	126	0	362.672085574106	362.772085075587	0.0999995014808519	stim14_sf2_pattern2_cont2_shape1.png	2	2	2	1	1	4	0	0	0	0	0	0	0	0	0	0	0	0	1	15
328.04443359375	0.100022374728724	671835	295	6	stim06_sf1_pattern2_cont2_shape1.png	1	127	0	363.172077803067	363.272100177795	0.100022374728724	stim06_sf1_pattern2_cont2_shape1.png	1	2	2	1	1	3	0	0	0	0	0	0	0	0	0	0	0	0	1	15
328.54443359375	0.0999989149859175	672859	296	12	stim12_sf2_pattern2_cont1_shape1.png	1	128	0	363.67210082294	363.772099737926	0.0999989149859175	stim12_sf2_pattern2_cont1_shape1.png	2	2	1	1	1	2	0	0	0	0	0	0	0	0	0	0	0	0	1	15
329.04443359375	0.0999986217393598	673883	297	3	stim03_sf1_pattern1_cont2_shape2.png	1	129	0	364.172083081508	364.272081703248	0.0999986217393598	stim03_sf1_pattern1_cont2_shape2.png	1	1	2	2	1	3	0	0	0	0	0	0	0	0	0	0	0	0	1	15
329.54443359375	0.100017976028539	674907	298	2	stim02_sf1_pattern1_cont2_shape1.png	1	130	0	364.672088506573	364.772106482602	0.100017976028539	stim02_sf1_pattern1_cont2_shape1.png	1	1	2	1	1	3	0	0	0	0	0	0	0	0	0	0	0	0	1	15
330.04443359375	0.0999581536834739	675931	299	13	stim13_sf2_pattern2_cont1_shape2.png	1	131	0	365.172115925148	365.272074078832	0.0999581536834739	stim13_sf2_pattern2_cont1_shape2.png	2	2	1	2	1	2	0	0	0	0	0	0	0	0	0	0	0	0	1	15
330.54443359375	0.100001847455133	676955	300	15	stim15_sf2_pattern2_cont2_shape2.png	1	132	0	365.672090852548	365.772092700003	0.100001847455133	stim15_sf2_pattern2_cont2_shape2.png	2	2	2	2	1	4	0	0	0	0	0	0	0	0	0	0	0	0	1	15
331.04443359375	0.100025013951381	677979	301	6	stim06_sf1_pattern2_cont2_shape1.png	1	133	0	366.17205639605	366.272081410001	0.100025013951381	stim06_sf1_pattern2_cont2_shape1.png	1	2	2	1	1	3	0	0	0	0	0	0	0	0	0	0	0	0	1	15
331.54443359375	0.0999953960254061	679003	302	4	stim04_sf1_pattern2_cont1_shape1.png	1	134	1	366.672070618519	366.772066014544	0.0999953960254061	stim04_sf1_pattern2_cont1_shape1.png	1	2	1	1	1	1	0	0	0	0	0	0	0	0	0	0	0	0	1	15
332.04443359375	0.100032638367338	680027	303	4	stim04_sf1_pattern2_cont1_shape1.png	1	135	1	367.172026484877	367.272059123245	0.100032638367338	stim04_sf1_pattern2_cont1_shape1.png	1	2	1	1	1	1	0	0	0	0	0	0	0	0	0	0	0	0	1	15
332.54443359375	0.0999989149877365	681051	304	7	stim07_sf1_pattern2_cont2_shape2.png	1	136	2	367.672051264231	367.772050179219	0.0999989149877365	stim07_sf1_pattern2_cont2_shape2.png	1	2	2	2	1	3	0	0	0	0	0	0	0	0	0	0	0	0	1	15
333.0439453125	0.100001847455133	682074	305	2	stim02_sf1_pattern1_cont2_shape1.png	1	137	2	368.172025605138	368.272027452593	0.100001847455133	stim02_sf1_pattern1_cont2_shape1.png	1	1	2	1	1	3	0	0	0	0	0	0	0	0	0	0	0	0	1	15
333.5439453125	0.10000096771364	683098	306	11	stim11_sf2_pattern1_cont2_shape2.png	1	138	0	368.672037481632	368.772038449346	0.10000096771364	stim11_sf2_pattern1_cont2_shape2.png	2	1	2	2	1	4	0	0	0	0	0	0	0	0	0	0	0	0	1	15
334.0439453125	0.100023254470216	684122	307	14	stim14_sf2_pattern2_cont2_shape1.png	1	139	0	369.171992468249	369.27201572272	0.100023254470216	stim14_sf2_pattern2_cont2_shape1.png	2	2	2	1	1	4	0	0	0	0	0	0	0	0	0	0	0	0	1	15
334.5439453125	0.0999578604369162	685146	308	7	stim07_sf1_pattern2_cont2_shape2.png	1	140	0	369.672042760074	369.772000620511	0.0999578604369162	stim07_sf1_pattern2_cont2_shape2.png	1	2	2	2	1	3	0	0	0	0	0	0	0	0	0	0	0	0	1	15
335.0439453125	0.0999965690116369	686170	309	4	stim04_sf1_pattern2_cont1_shape1.png	1	141	0	370.171998333186	370.271994902198	0.0999965690116369	stim04_sf1_pattern2_cont1_shape1.png	1	2	1	1	1	1	0	0	0	0	0	0	0	0	0	0	0	0	1	15
335.5439453125	0.0999613793992467	687194	310	9	stim09_sf2_pattern1_cont1_shape2.png	1	142	0	370.672006397472	370.771967776871	0.0999613793992467	stim09_sf2_pattern1_cont1_shape2.png	2	1	1	2	1	2	0	0	0	0	0	0	0	0	0	0	0	0	1	15
336.0439453125	0.100007125896809	688218	311	0	stim00_sf1_pattern1_cont1_shape1.png	1	143	0	371.171973700455	371.271980826352	0.100007125896809	stim00_sf1_pattern1_cont1_shape1.png	1	1	1	1	1	1	0	0	0	0	0	0	0	0	0	0	0	0	1	15
336.5439453125	0.0999883581025642	689242	312	5	stim05_sf1_pattern2_cont1_shape2.png	1	144	0	371.672000532537	371.771988890639	0.0999883581025642	stim05_sf1_pattern2_cont1_shape2.png	1	2	1	2	1	1	0	0	0	0	0	0	0	0	0	0	0	0	1	15
337.0439453125	0.100044954733676	690266	313	8	stim08_sf2_pattern1_cont1_shape1.png	1	145	0	372.171918570059	372.271963524792	0.100044954733676	stim08_sf2_pattern1_cont1_shape1.png	2	1	1	1	1	2	0	0	0	0	0	0	0	0	0	0	0	0	1	15
337.5439453125	0.100022081483985	691290	314	10	stim10_sf2_pattern1_cont2_shape1.png	1	146	0	372.671974140325	372.771996221809	0.100022081483985	stim10_sf2_pattern1_cont2_shape1.png	2	1	2	1	1	4	0	0	0	0	0	0	0	0	0	0	0	0	1	15
338.0439453125	0.10004084927823	692314	315	1	stim01_sf1_pattern1_cont1_shape2.png	1	147	0	373.171925607981	373.27196645726	0.10004084927823	stim01_sf1_pattern1_cont1_shape2.png	1	1	1	2	1	1	0	0	0	0	0	0	0	0	0	0	0	0	1	15
338.5439453125	0.0999959825185215	693338	316	0	stim00_sf1_pattern1_cont1_shape1.png	1	148	0	373.67196182396	373.771957806479	0.0999959825185215	stim00_sf1_pattern1_cont1_shape1.png	1	1	1	1	1	1	0	0	0	0	0	0	0	0	0	0	0	0	1	15
339.0439453125	0.099980733686607	694362	317	14	stim14_sf2_pattern2_cont2_shape1.png	1	149	0	374.171956105647	374.271936839334	0.099980733686607	stim14_sf2_pattern2_cont2_shape1.png	2	2	2	1	1	4	0	0	0	0	0	0	0	0	0	0	0	0	1	15
339.5439453125	0.0999933432995022	695386	318	13	stim13_sf2_pattern2_cont1_shape2.png	1	150	0	374.671949214347	374.771942557647	0.0999933432995022	stim13_sf2_pattern2_cont1_shape2.png	2	2	1	2	1	2	0	0	0	0	0	0	0	0	0	0	0	0	1	15
340.0439453125	0.100016803040489	696410	319	12	stim12_sf2_pattern2_cont1_shape1.png	1	151	0	375.17190390772	375.27192071076	0.100016803040489	stim12_sf2_pattern2_cont1_shape1.png	2	2	1	1	1	2	0	0	0	0	0	0	0	0	0	0	0	0	1	15
340.5439453125	0.100029119405008	697434	320	7	stim07_sf1_pattern2_cont2_shape2.png	1	152	0	375.671894377199	375.771923496604	0.100029119405008	stim07_sf1_pattern2_cont2_shape2.png	1	2	2	2	1	3	0	0	0	0	0	0	0	0	0	0	0	0	1	15
341.0439453125	0.0999663645925466	698458	321	6	stim06_sf1_pattern2_cont2_shape1.png	1	153	0	376.171922089021	376.271888453613	0.0999663645925466	stim06_sf1_pattern2_cont2_shape1.png	1	2	2	1	1	3	0	0	0	0	0	0	0	0	0	0	0	0	1	15
341.5439453125	0.100017096288866	699482	322	8	stim08_sf2_pattern1_cont1_shape1.png	1	154	0	376.671870624208	376.771887720497	0.100017096288866	stim08_sf2_pattern1_cont1_shape1.png	2	1	1	1	1	2	0	0	0	0	0	0	0	0	0	0	0	0	1	15
342.0439453125	0.0999824931659532	700506	323	10	stim10_sf2_pattern1_cont2_shape1.png	1	155	0	377.171881327717	377.271863820883	0.0999824931659532	stim10_sf2_pattern1_cont2_shape1.png	2	1	2	1	1	4	0	0	0	0	0	0	0	0	0	0	0	0	1	15
342.5439453125	0.100017389533605	701530	324	3	stim03_sf1_pattern1_cont2_shape2.png	1	156	0	377.671855961869	377.771873351403	0.100017389533605	stim03_sf1_pattern1_cont2_shape2.png	1	1	2	2	1	3	0	0	0	0	0	0	0	0	0	0	0	0	1	15
343.0439453125	0.0999616726458044	702554	325	15	stim15_sf2_pattern2_cont2_shape2.png	1	157	0	378.171912411875	378.271874084521	0.0999616726458044	stim15_sf2_pattern2_cont2_shape2.png	2	2	2	2	1	4	0	0	0	0	0	0	0	0	0	0	0	0	1	15
343.5439453125	0.0999549279677012	703578	326	5	stim05_sf1_pattern2_cont1_shape2.png	1	158	0	378.671865639013	378.771820566981	0.0999549279677012	stim05_sf1_pattern2_cont1_shape2.png	1	2	1	2	1	1	0	0	0	0	0	0	0	0	0	0	0	0	1	15
344.0439453125	0.100084249803331	704602	327	1	stim01_sf1_pattern1_cont1_shape2.png	1	159	0	379.171779277833	379.271863527636	0.100084249803331	stim01_sf1_pattern1_cont1_shape2.png	1	1	1	2	1	1	0	0	0	0	0	0	0	0	0	0	0	0	1	15
344.5439453125	0.100004193429413	705626	328	4	stim04_sf1_pattern2_cont1_shape1.png	1	160	0	379.671838660308	379.771842853737	0.100004193429413	stim04_sf1_pattern2_cont1_shape1.png	1	2	1	1	1	1	0	0	0	0	0	0	0	0	0	0	0	0	1	15
345.0439453125	0.100009178624532	706650	329	11	stim11_sf2_pattern1_cont2_shape2.png	1	161	0	380.171834114983	380.271843293607	0.100009178624532	stim11_sf2_pattern1_cont2_shape2.png	2	1	2	2	1	4	0	0	0	0	0	0	0	0	0	0	0	0	1	15
345.5439453125	0.0999860121282836	707674	330	9	stim09_sf2_pattern1_cont1_shape2.png	1	162	0	380.671838660308	380.771824672436	0.0999860121282836	stim09_sf2_pattern1_cont1_shape2.png	2	1	1	2	1	2	0	0	0	0	0	0	0	0	0	0	0	0	1	15
346.0439453125	0.0999587401765893	708698	331	2	stim02_sf1_pattern1_cont2_shape1.png	1	163	0	381.171869891092	381.271828631268	0.0999587401765893	stim02_sf1_pattern1_cont2_shape1.png	1	1	2	1	1	3	0	0	0	0	0	0	0	0	0	0	0	0	1	15
369.16796875	0.0999939297907986	756056	332	12	stim12_sf2_pattern2_cont1_shape1.png	2	0	0	404.296497431013	404.396491360803	0.0999939297907986	stim12_sf2_pattern2_cont1_shape1.png	2	2	1	1	1	2	0	0	0	0	0	0	0	0	0	0	0	0	1	15
369.66796875	0.0999701768014347	757080	333	2	stim02_sf1_pattern1_cont2_shape1.png	2	1	0	404.796488193739	404.89645837054	0.0999701768014347	stim02_sf1_pattern1_cont2_shape1.png	1	1	2	1	1	3	0	0	0	0	0	0	0	0	0	0	0	0	1	15
370.16796875	0.099972816022273	758104	334	1	stim01_sf1_pattern1_cont1_shape2.png	2	2	0	405.296485994388	405.39645881041	0.099972816022273	stim01_sf1_pattern1_cont1_shape2.png	1	1	1	2	1	1	0	0	0	0	0	0	0	0	0	0	0	0	1	15
370.66796875	0.0999713497894845	759128	335	7	stim07_sf1_pattern2_cont2_shape2.png	2	3	0	405.796471185424	405.896442535213	0.0999713497894845	stim07_sf1_pattern2_cont2_shape2.png	1	2	2	2	1	3	0	0	0	0	0	0	0	0	0	0	0	0	1	15
371.16796875	0.0999769214777189	760152	336	6	stim06_sf1_pattern2_cont2_shape1.png	2	4	0	406.296443180356	406.396420101833	0.0999769214777189	stim06_sf1_pattern2_cont2_shape1.png	1	2	2	1	1	3	0	0	0	0	0	0	0	0	0	0	0	0	1	15
371.66796875	0.099980733684788	761176	337	14	stim14_sf2_pattern2_cont2_shape1.png	2	5	0	406.79646795971	406.896448693395	0.099980733684788	stim14_sf2_pattern2_cont2_shape1.png	2	2	2	1	1	4	0	0	0	0	0	0	0	0	0	0	0	0	1	15
372.16796875	0.100006539403694	762200	338	8	stim08_sf2_pattern1_cont1_shape1.png	2	6	0	407.296413269183	407.396419808587	0.100006539403694	stim08_sf2_pattern1_cont1_shape1.png	2	1	1	1	1	2	0	0	0	0	0	0	0	0	0	0	0	0	1	15
372.66796875	0.100001847455133	763224	339	3	stim03_sf1_pattern1_cont2_shape2.png	2	7	0	407.796419867236	407.896421714691	0.100001847455133	stim03_sf1_pattern1_cont2_shape2.png	1	1	2	2	1	3	0	0	0	0	0	0	0	0	0	0	0	0	1	15
373.16796875	0.099997448753129	764248	340	15	stim15_sf2_pattern2_cont2_shape2.png	2	8	0	408.296409163728	408.396406612481	0.099997448753129	stim15_sf2_pattern2_cont2_shape2.png	2	2	2	2	1	4	0	0	0	0	0	0	0	0	0	0	0	0	1	15
373.66796875	0.100024427458266	765272	341	5	stim05_sf1_pattern2_cont1_shape2.png	2	9	0	408.796374413983	408.896398841442	0.100024427458266	stim05_sf1_pattern2_cont1_shape2.png	1	2	1	2	1	1	0	0	0	0	0	0	0	0	0	0	0	0	1	15
374.16796875	0.100015923300816	766296	342	13	stim13_sf2_pattern2_cont1_shape2.png	2	10	0	409.296383651257	409.396399574558	0.100015923300816	stim13_sf2_pattern2_cont1_shape2.png	2	2	1	2	1	2	0	0	0	0	0	0	0	0	0	0	0	0	1	15
374.66796875	0.0999997947274096	767320	343	11	stim11_sf2_pattern1_cont2_shape2.png	2	11	0	409.796394941259	409.896394735986	0.0999997947274096	stim11_sf2_pattern1_cont2_shape2.png	2	1	2	2	1	4	0	0	0	0	0	0	0	0	0	0	0	0	1	15
375.16796875	0.100009178624532	768344	344	0	stim00_sf1_pattern1_cont1_shape1.png	2	12	0	410.29637338762	410.396382566245	0.100009178624532	stim00_sf1_pattern1_cont1_shape1.png	1	1	1	1	1	1	0	0	0	0	0	0	0	0	0	0	0	0	1	15
375.66796875	0.0999965690134559	769368	345	4	stim04_sf1_pattern2_cont1_shape1.png	2	13	0	410.796377346451	410.896373915464	0.0999965690134559	stim04_sf1_pattern2_cont1_shape1.png	1	2	1	1	1	1	0	0	0	0	0	0	0	0	0	0	0	0	1	15
376.16796875	0.100018855770031	770392	346	10	stim10_sf2_pattern1_cont2_shape1.png	2	14	0	411.296356965799	411.396375821569	0.100018855770031	stim10_sf2_pattern1_cont2_shape1.png	2	1	2	1	1	4	0	0	0	0	0	0	0	0	0	0	0	0	1	15
376.66796875	0.0999877716076298	771416	347	9	stim09_sf2_pattern1_cont1_shape2.png	2	15	0	411.796389662817	411.896377434425	0.0999877716076298	stim09_sf2_pattern1_cont1_shape2.png	2	1	1	2	1	2	0	0	0	0	0	0	0	0	0	0	0	0	1	15
377.16796875	0.100035277589996	772440	348	6	stim06_sf1_pattern2_cont2_shape1.png	2	16	0	412.296328814107	412.396364091697	0.100035277589996	stim06_sf1_pattern2_cont2_shape1.png	1	2	2	1	1	3	0	0	0	0	0	0	0	0	0	0	0	0	1	15
377.66796875	0.0999980352462444	773464	349	5	stim05_sf1_pattern2_cont1_shape2.png	2	17	0	412.796363270605	412.896361305851	0.0999980352462444	stim05_sf1_pattern2_cont1_shape2.png	1	2	1	2	1	1	0	0	0	0	0	0	0	0	0	0	0	0	1	15
378.16796875	0.100011524598813	774488	350	0	stim00_sf1_pattern1_cont1_shape1.png	2	18	0	413.296349927876	413.396361452475	0.100011524598813	stim00_sf1_pattern1_cont1_shape1.png	1	1	1	1	1	1	0	0	0	0	0	0	0	0	0	0	0	0	1	15
378.66796875	0.100000674467083	775512	351	7	stim07_sf1_pattern2_cont2_shape2.png	2	19	0	413.796347142032	413.896347816499	0.100000674467083	stim07_sf1_pattern2_cont2_shape2.png	1	2	2	2	1	3	0	0	0	0	0	0	0	0	0	0	0	0	1	15
379.16796875	0.100007712391744	776536	352	3	stim03_sf1_pattern1_cont2_shape2.png	2	20	0	414.296322069431	414.396329781823	0.100007712391744	stim03_sf1_pattern1_cont2_shape2.png	1	1	2	2	1	3	0	0	0	0	0	0	0	0	0	0	0	0	1	15
379.66796875	0.0999786809588841	777560	353	10	stim10_sf2_pattern1_cont2_shape1.png	2	21	0	414.796333066186	414.896311747145	0.0999786809588841	stim10_sf2_pattern1_cont2_shape1.png	2	1	2	1	1	4	0	0	0	0	0	0	0	0	0	0	0	0	1	15
380.16796875	0.10000096771364	778584	354	1	stim01_sf1_pattern1_cont1_shape2.png	2	22	0	415.296307700339	415.396308668052	0.10000096771364	stim01_sf1_pattern1_cont1_shape2.png	1	1	1	2	1	1	0	0	0	0	0	0	0	0	0	0	0	0	1	15
380.66796875	0.09999744875131	779608	355	2	stim02_sf1_pattern1_cont2_shape1.png	2	23	0	415.796318403847	415.896315852598	0.09999744875131	stim02_sf1_pattern1_cont2_shape1.png	1	1	2	1	1	3	0	0	0	0	0	0	0	0	0	0	0	0	1	15
381.16796875	0.100017096287047	780632	356	15	stim15_sf2_pattern2_cont2_shape2.png	2	24	0	416.296291278519	416.396308374806	0.100017096287047	stim15_sf2_pattern2_cont2_shape2.png	2	2	2	2	1	4	0	0	0	0	0	0	0	0	0	0	0	0	1	15
381.66796875	0.0999813201797224	781656	357	12	stim12_sf2_pattern2_cont1_shape1.png	2	25	0	416.796317230859	416.896298551039	0.0999813201797224	stim12_sf2_pattern2_cont1_shape1.png	2	2	1	1	1	2	0	0	0	0	0	0	0	0	0	0	0	0	1	15
382.16796875	0.100014457066209	782680	358	11	stim11_sf2_pattern1_cont2_shape2.png	2	26	0	417.296276909427	417.396291366493	0.100014457066209	stim11_sf2_pattern1_cont2_shape2.png	2	1	2	2	1	4	0	0	0	0	0	0	0	0	0	0	0	0	1	15
382.66796875	0.100016803040489	783704	359	4	stim04_sf1_pattern2_cont1_shape1.png	2	27	0	417.796269138385	417.896285941426	0.100016803040489	stim04_sf1_pattern2_cont1_shape1.png	1	2	1	1	1	1	0	0	0	0	0	0	0	0	0	0	0	0	1	15
383.16796875	0.10000214070169	784728	360	13	stim13_sf2_pattern2_cont1_shape2.png	2	28	0	418.296262247086	418.396264387788	0.10000214070169	stim13_sf2_pattern2_cont1_shape2.png	2	2	1	2	1	2	0	0	0	0	0	0	0	0	0	0	0	0	1	15
383.66796875	0.0999956892719638	785752	361	9	stim09_sf2_pattern1_cont1_shape2.png	2	29	0	418.796275589815	418.896271279087	0.0999956892719638	stim09_sf2_pattern1_cont1_shape2.png	2	1	1	2	1	2	0	0	0	0	0	0	0	0	0	0	0	0	1	15
384.16796875	0.0999948095304717	786776	362	8	stim08_sf2_pattern1_cont1_shape1.png	2	30	0	419.296254036177	419.396248845707	0.0999948095304717	stim08_sf2_pattern1_cont1_shape1.png	2	1	1	1	1	2	0	0	0	0	0	0	0	0	0	0	0	0	1	15
384.66796875	0.0999942230373563	787800	363	5	stim05_sf1_pattern2_cont1_shape2.png	2	31	1	419.796261220723	419.89625544376	0.0999942230373563	stim05_sf1_pattern2_cont1_shape2.png	1	2	1	2	1	1	0	0	0	0	0	0	0	0	0	0	0	0	1	15
385.16748046875	0.099953168488355	788823	364	5	stim05_sf1_pattern2_cont1_shape2.png	2	32	1	420.296237614355	420.396190782843	0.099953168488355	stim05_sf1_pattern2_cont1_shape2.png	1	2	1	2	1	1	0	0	0	0	0	0	0	0	0	0	0	0	1	15
385.66748046875	0.100023254470216	789847	365	1	stim01_sf1_pattern1_cont1_shape2.png	2	33	2	420.796202571364	420.896225825834	0.100023254470216	stim01_sf1_pattern1_cont1_shape2.png	1	1	1	2	1	1	0	0	0	0	0	0	0	0	0	0	0	0	1	15
386.16748046875	0.100000674467083	790871	366	9	stim09_sf2_pattern1_cont1_shape2.png	2	34	2	421.29621620734	421.396216881807	0.100000674467083	stim09_sf2_pattern1_cont1_shape2.png	2	1	1	2	1	2	0	0	0	0	0	0	0	0	0	0	0	0	1	15
386.66748046875	0.0999663645925466	791895	367	14	stim14_sf2_pattern2_cont2_shape1.png	2	35	0	421.796251836826	421.896218201418	0.0999663645925466	stim14_sf2_pattern2_cont2_shape1.png	2	2	2	1	1	4	0	0	0	0	0	0	0	0	0	0	0	0	1	15
387.16748046875	0.100032051874223	792919	368	6	stim06_sf1_pattern2_cont2_shape1.png	2	36	0	422.296197732792	422.396229784667	0.100032051874223	stim06_sf1_pattern2_cont2_shape1.png	1	2	2	1	1	3	0	0	0	0	0	0	0	0	0	0	0	0	1	15
387.66748046875	0.100020615249377	793943	369	15	stim15_sf2_pattern2_cont2_shape2.png	2	37	0	422.796166502008	422.896187117258	0.100020615249377	stim15_sf2_pattern2_cont2_shape2.png	2	2	2	2	1	4	0	0	0	0	0	0	0	0	0	0	0	0	1	15
388.16748046875	0.100003020443182	794967	370	11	stim11_sf2_pattern1_cont2_shape2.png	2	38	0	423.296168994606	423.396172015049	0.100003020443182	stim11_sf2_pattern1_cont2_shape2.png	2	1	2	2	1	4	0	0	0	0	0	0	0	0	0	0	0	0	1	15
388.66748046875	0.0999983284928021	795991	371	13	stim13_sf2_pattern2_cont1_shape2.png	2	39	0	423.796160637074	423.896158965566	0.0999983284928021	stim13_sf2_pattern2_cont1_shape2.png	2	2	1	2	1	2	0	0	0	0	0	0	0	0	0	0	0	0	1	15
389.16748046875	0.0999995014808519	797015	372	9	stim09_sf2_pattern1_cont1_shape2.png	2	40	0	424.296156384995	424.396155886476	0.0999995014808519	stim09_sf2_pattern1_cont1_shape2.png	2	1	1	2	1	2	0	0	0	0	0	0	0	0	0	0	0	0	1	15
389.66748046875	0.0999924635561911	798039	373	12	stim12_sf2_pattern2_cont1_shape1.png	2	41	0	424.796157704606	424.896150168162	0.0999924635561911	stim12_sf2_pattern2_cont1_shape1.png	2	2	1	1	1	2	0	0	0	0	0	0	0	0	0	0	0	0	1	15
390.16748046875	0.0999983284928021	799063	374	3	stim03_sf1_pattern1_cont2_shape2.png	2	42	0	425.296145534863	425.396143863356	0.0999983284928021	stim03_sf1_pattern1_cont2_shape2.png	1	1	2	2	1	3	0	0	0	0	0	0	0	0	0	0	0	0	1	15
390.66748046875	0.0999983284928021	800087	375	14	stim14_sf2_pattern2_cont2_shape1.png	2	43	0	425.796148613956	425.896146942448	0.0999983284928021	stim14_sf2_pattern2_cont2_shape1.png	2	2	2	1	1	4	0	0	0	0	0	0	0	0	0	0	0	0	1	15
391.16748046875	0.100006539403694	801111	376	10	stim10_sf2_pattern1_cont2_shape1.png	2	44	0	426.296130872524	426.396137411928	0.100006539403694	stim10_sf2_pattern1_cont2_shape1.png	2	1	2	1	1	4	0	0	0	0	0	0	0	0	0	0	0	0	1	15
391.66748046875	0.0999663645925466	802135	377	1	stim01_sf1_pattern1_cont1_shape2.png	2	45	0	426.796156238372	426.896122602964	0.0999663645925466	stim01_sf1_pattern1_cont1_shape2.png	1	1	1	2	1	1	0	0	0	0	0	0	0	0	0	0	0	0	1	15
392.16748046875	0.0999880648541875	803159	378	5	stim05_sf1_pattern2_cont1_shape2.png	2	46	0	427.29613497798	427.396123042834	0.0999880648541875	stim05_sf1_pattern2_cont1_shape2.png	1	2	1	2	1	1	0	0	0	0	0	0	0	0	0	0	0	0	1	15
392.66748046875	0.0999798539451149	804183	379	8	stim08_sf2_pattern1_cont1_shape1.png	2	47	0	427.796154185644	427.896134039589	0.0999798539451149	stim08_sf2_pattern1_cont1_shape1.png	2	1	1	1	1	2	0	0	0	0	0	0	0	0	0	0	0	0	1	15
393.16748046875	0.0999936365442409	805207	380	2	stim02_sf1_pattern1_cont2_shape1.png	2	48	0	428.296122368367	428.396116004911	0.0999936365442409	stim02_sf1_pattern1_cont2_shape1.png	1	1	2	1	1	3	0	0	0	0	0	0	0	0	0	0	0	0	1	15
393.66748046875	0.0999710565429268	806231	381	4	stim04_sf1_pattern2_cont1_shape1.png	2	49	0	428.796131898887	428.89610295543	0.0999710565429268	stim04_sf1_pattern2_cont1_shape1.png	1	2	1	1	1	1	0	0	0	0	0	0	0	0	0	0	0	0	1	15
394.16748046875	0.100003020441363	807255	382	7	stim07_sf1_pattern2_cont2_shape2.png	2	50	0	429.296096269403	429.396099289845	0.100003020441363	stim07_sf1_pattern2_cont2_shape2.png	1	2	2	2	1	3	0	0	0	0	0	0	0	0	0	0	0	0	1	15
394.66748046875	0.0999558077091933	808279	383	0	stim00_sf1_pattern1_cont1_shape1.png	2	51	0	429.796103453949	429.896059261659	0.0999558077091933	stim00_sf1_pattern1_cont1_shape1.png	1	1	1	1	1	1	0	0	0	0	0	0	0	0	0	0	0	0	1	15
395.16748046875	0.100002433948248	809303	384	3	stim03_sf1_pattern1_cont2_shape2.png	2	52	0	430.296080727323	430.396083161271	0.100002433948248	stim03_sf1_pattern1_cont2_shape2.png	1	1	2	2	1	3	0	0	0	0	0	0	0	0	0	0	0	0	1	15
395.66748046875	0.099986598621399	810327	385	0	stim00_sf1_pattern1_cont1_shape1.png	2	53	0	430.796088498362	430.896075096984	0.099986598621399	stim00_sf1_pattern1_cont1_shape1.png	1	1	1	1	1	1	0	0	0	0	0	0	0	0	0	0	0	0	1	15
396.16748046875	0.100003900182855	811351	386	5	stim05_sf1_pattern2_cont1_shape2.png	2	54	0	431.296065478489	431.396069378672	0.100003900182855	stim05_sf1_pattern2_cont1_shape2.png	1	2	1	2	1	1	0	0	0	0	0	0	0	0	0	0	0	0	1	15
396.66748046875	0.100010938103878	812375	387	12	stim12_sf2_pattern2_cont1_shape1.png	2	55	0	431.796059466931	431.896070405035	0.100010938103878	stim12_sf2_pattern2_cont1_shape1.png	2	2	1	1	1	2	0	0	0	0	0	0	0	0	0	0	0	0	1	15
397.16748046875	0.100006539403694	813399	388	9	stim09_sf2_pattern1_cont1_shape2.png	2	56	0	432.29605081615	432.396057355554	0.100006539403694	stim09_sf2_pattern1_cont1_shape2.png	2	1	1	2	1	2	0	0	0	0	0	0	0	0	0	0	0	0	1	15
397.66748046875	0.0999965690116369	814423	389	6	stim06_sf1_pattern2_cont2_shape1.png	2	57	0	432.796060053424	432.896056622436	0.0999965690116369	stim06_sf1_pattern2_cont2_shape1.png	1	2	2	1	1	3	0	0	0	0	0	0	0	0	0	0	0	0	1	15
398.16748046875	0.100001847455133	815447	390	13	stim13_sf2_pattern2_cont1_shape2.png	2	58	0	433.296037033551	433.396038881006	0.100001847455133	stim13_sf2_pattern2_cont1_shape2.png	2	2	1	2	1	2	0	0	0	0	0	0	0	0	0	0	0	0	1	15
398.66748046875	0.0999977419996867	816471	391	1	stim01_sf1_pattern1_cont1_shape2.png	2	59	0	433.796042751863	433.896040493863	0.0999977419996867	stim01_sf1_pattern1_cont1_shape2.png	1	1	1	2	1	1	0	0	0	0	0	0	0	0	0	0	0	0	1	15
399.16748046875	0.100004779922529	817495	392	8	stim08_sf2_pattern1_cont1_shape1.png	2	60	0	434.29601973199	434.396024511912	0.100004779922529	stim08_sf2_pattern1_cont1_shape1.png	2	1	1	1	1	2	0	0	0	0	0	0	0	0	0	0	0	0	1	15
399.66748046875	0.0999992082342942	818519	393	2	stim02_sf1_pattern1_cont2_shape1.png	2	61	0	434.796027796277	434.896027004512	0.0999992082342942	stim02_sf1_pattern1_cont2_shape1.png	1	1	2	1	1	3	0	0	0	0	0	0	0	0	0	0	0	0	1	15
400.16748046875	0.10000214070169	819543	394	15	stim15_sf2_pattern2_cont2_shape2.png	2	62	0	435.296005656144	435.396007796846	0.10000214070169	stim15_sf2_pattern2_cont2_shape2.png	2	2	2	2	1	4	0	0	0	0	0	0	0	0	0	0	0	0	1	15
400.66748046875	0.0999754552431114	820567	395	14	stim14_sf2_pattern2_cont2_shape1.png	2	63	0	435.79601929212	435.895994747363	0.0999754552431114	stim14_sf2_pattern2_cont2_shape1.png	2	2	2	1	1	4	0	0	0	0	0	0	0	0	0	0	0	0	1	15
401.16748046875	0.100006539403694	821591	396	10	stim10_sf2_pattern1_cont2_shape1.png	2	64	0	436.295972812504	436.395979351908	0.100006539403694	stim10_sf2_pattern1_cont2_shape1.png	2	1	2	1	1	4	0	0	0	0	0	0	0	0	0	0	0	0	1	15
401.66748046875	0.0999851323867915	822615	397	4	stim04_sf1_pattern2_cont1_shape1.png	2	65	0	436.795984395752	436.895969528139	0.0999851323867915	stim04_sf1_pattern2_cont1_shape1.png	1	2	1	1	1	1	0	0	0	0	0	0	0	0	0	0	0	0	1	15
402.16748046875	0.0999766282311612	823639	398	7	stim07_sf1_pattern2_cont2_shape2.png	2	66	0	437.295959909645	437.395936537876	0.0999766282311612	stim07_sf1_pattern2_cont2_shape2.png	1	2	2	2	1	3	0	0	0	0	0	0	0	0	0	0	0	0	1	15
402.66748046875	0.0999956892719638	824663	399	11	stim11_sf2_pattern1_cont2_shape2.png	2	67	0	437.795938649253	437.895934338525	0.0999956892719638	stim11_sf2_pattern1_cont2_shape2.png	2	1	2	2	1	4	0	0	0	0	0	0	0	0	0	0	0	0	1	15
403.1669921875	0.100001847455133	825686	400	6	stim06_sf1_pattern2_cont2_shape1.png	2	68	0	438.295920321329	438.395922168784	0.100001847455133	stim06_sf1_pattern2_cont2_shape1.png	1	2	2	1	1	3	0	0	0	0	0	0	0	0	0	0	0	0	1	15
403.6669921875	0.099997448753129	826710	401	9	stim09_sf2_pattern1_cont1_shape2.png	2	69	0	438.795922813926	438.895920262679	0.099997448753129	stim09_sf2_pattern1_cont1_shape2.png	2	1	1	2	1	2	0	0	0	0	0	0	0	0	0	0	0	0	1	15
404.1669921875	0.100028532911892	827734	402	4	stim04_sf1_pattern2_cont1_shape1.png	2	70	0	439.295906538729	439.395935071641	0.100028532911892	stim04_sf1_pattern2_cont1_shape1.png	1	2	1	1	1	1	0	0	0	0	0	0	0	0	0	0	0	0	1	15
404.6669921875	0.100014163819651	828758	403	13	stim13_sf2_pattern2_cont1_shape2.png	2	71	0	439.795920174705	439.895934338525	0.100014163819651	stim13_sf2_pattern2_cont1_shape2.png	2	2	1	2	1	2	0	0	0	0	0	0	0	0	0	0	0	0	1	15
405.1669921875	0.10000214070169	829782	404	7	stim07_sf1_pattern2_cont2_shape2.png	2	72	0	440.295922667303	440.395924808005	0.10000214070169	stim07_sf1_pattern2_cont2_shape2.png	1	2	2	2	1	3	0	0	0	0	0	0	0	0	0	0	0	0	1	15
405.6669921875	0.0999995014808519	830806	405	11	stim11_sf2_pattern1_cont2_shape2.png	2	73	0	440.795923693666	440.895923195147	0.0999995014808519	stim11_sf2_pattern1_cont2_shape2.png	2	1	2	2	1	4	0	0	0	0	0	0	0	0	0	0	0	0	1	15
406.1669921875	0.100000381220525	831830	406	14	stim14_sf2_pattern2_cont2_shape1.png	2	74	0	441.295911523925	441.395911905145	0.100000381220525	stim14_sf2_pattern2_cont2_shape1.png	2	2	2	1	1	4	0	0	0	0	0	0	0	0	0	0	0	0	1	15
406.6669921875	0.10000331368974	832854	407	2	stim02_sf1_pattern1_cont2_shape1.png	2	75	0	441.795930438342	441.895933752032	0.10000331368974	stim02_sf1_pattern1_cont2_shape1.png	1	1	2	1	1	3	0	0	0	0	0	0	0	0	0	0	0	0	1	15
407.1669921875	0.100005073169086	833878	408	3	stim03_sf1_pattern1_cont2_shape2.png	2	76	0	442.295903313016	442.395908386185	0.100005073169086	stim03_sf1_pattern1_cont2_shape2.png	1	1	2	2	1	3	0	0	0	0	0	0	0	0	0	0	0	0	1	15
407.6669921875	0.099977801217392	834902	409	15	stim15_sf2_pattern2_cont2_shape2.png	2	77	0	442.795933664058	442.895911465275	0.099977801217392	stim15_sf2_pattern2_cont2_shape2.png	2	2	2	2	1	4	0	0	0	0	0	0	0	0	0	0	0	0	1	15
408.1669921875	0.100011817847189	835926	410	0	stim00_sf1_pattern1_cont1_shape1.png	2	78	0	443.295886891194	443.395898709041	0.100011817847189	stim00_sf1_pattern1_cont1_shape1.png	1	1	1	1	1	1	0	0	0	0	0	0	0	0	0	0	0	0	1	15
408.6669921875	0.0999968622581946	836950	411	12	stim12_sf2_pattern2_cont1_shape1.png	2	79	0	443.795894075742	443.895890938	0.0999968622581946	stim12_sf2_pattern2_cont1_shape1.png	2	2	1	1	1	2	0	0	0	0	0	0	0	0	0	0	0	0	1	15
409.1669921875	0.100000381220525	837974	412	8	stim08_sf2_pattern1_cont1_shape1.png	2	80	0	444.295880439766	444.395880820986	0.100000381220525	stim08_sf2_pattern1_cont1_shape1.png	2	1	1	1	1	2	0	0	0	0	0	0	0	0	0	0	0	0	1	15
409.6669921875	0.0999757484896691	838998	413	10	stim10_sf2_pattern1_cont2_shape1.png	2	81	0	444.795878826908	444.895854575398	0.0999757484896691	stim10_sf2_pattern1_cont2_shape1.png	2	1	2	1	1	4	0	0	0	0	0	0	0	0	0	0	0	0	1	15
410.1669921875	0.100008885377974	840022	414	1	stim01_sf1_pattern1_cont1_shape2.png	2	82	0	445.295847596124	445.395856481502	0.100008885377974	stim01_sf1_pattern1_cont1_shape2.png	1	1	1	2	1	1	0	0	0	0	0	0	0	0	0	0	0	0	1	15
410.6669921875	0.100010938105697	841046	415	5	stim05_sf1_pattern2_cont1_shape2.png	2	83	0	445.795863578074	445.89587451618	0.100010938105697	stim05_sf1_pattern2_cont1_shape2.png	1	2	1	2	1	1	0	0	0	0	0	0	0	0	0	0	0	0	1	15
411.1669921875	0.0999863053748413	842070	416	15	stim15_sf2_pattern2_cont2_shape2.png	2	84	0	446.295854927293	446.395841232668	0.0999863053748413	stim15_sf2_pattern2_cont2_shape2.png	2	2	2	2	1	4	0	0	0	0	0	0	0	0	0	0	0	0	1	15
411.6669921875	0.0999983284928021	843094	417	0	stim00_sf1_pattern1_cont1_shape1.png	2	85	0	446.795846569761	446.895844898254	0.0999983284928021	stim00_sf1_pattern1_cont1_shape1.png	1	1	1	1	1	1	0	0	0	0	0	0	0	0	0	0	0	0	1	15
412.1669921875	0.100014457066209	844118	418	11	stim11_sf2_pattern1_cont2_shape2.png	2	86	0	447.295822963395	447.395837420461	0.100014457066209	stim11_sf2_pattern1_cont2_shape2.png	2	1	2	2	1	4	0	0	0	0	0	0	0	0	0	0	0	0	1	15
412.6669921875	0.0999989149859175	845142	419	6	stim06_sf1_pattern2_cont2_shape1.png	2	87	0	447.795830441188	447.895829356174	0.0999989149859175	stim06_sf1_pattern2_cont2_shape1.png	1	2	2	1	1	3	0	0	0	0	0	0	0	0	0	0	0	0	1	15
413.1669921875	0.0999992082342942	846166	420	12	stim12_sf2_pattern2_cont1_shape1.png	2	88	0	448.295824136381	448.395823344616	0.0999992082342942	stim12_sf2_pattern2_cont1_shape1.png	2	2	1	1	1	2	0	0	0	0	0	0	0	0	0	0	0	0	1	15
413.6669921875	0.0999971555065713	847190	421	1	stim01_sf1_pattern1_cont1_shape2.png	2	89	0	448.795816658589	448.895813814095	0.0999971555065713	stim01_sf1_pattern1_cont1_shape2.png	1	1	1	2	1	1	0	0	0	0	0	0	0	0	0	0	0	0	1	15
414.1669921875	0.0999965690116369	848214	422	13	stim13_sf2_pattern2_cont1_shape2.png	2	90	0	449.295800383392	449.395796952404	0.0999965690116369	stim13_sf2_pattern2_cont1_shape2.png	2	2	1	2	1	2	0	0	0	0	0	0	0	0	0	0	0	0	1	15
414.6669921875	0.0999965690116369	849238	423	4	stim04_sf1_pattern2_cont1_shape1.png	2	91	0	449.795802289496	449.895798858508	0.0999965690116369	stim04_sf1_pattern2_cont1_shape1.png	1	2	1	1	1	1	0	0	0	0	0	0	0	0	0	0	0	0	1	15
415.1669921875	0.100009178624532	850262	424	8	stim08_sf2_pattern1_cont1_shape1.png	2	92	0	450.295776337154	450.395785515779	0.100009178624532	stim08_sf2_pattern1_cont1_shape1.png	2	1	1	1	1	2	0	0	0	0	0	0	0	0	0	0	0	0	1	15
415.6669921875	0.0999948095322907	851286	425	9	stim09_sf2_pattern1_cont1_shape2.png	2	93	0	450.795788213649	450.895783023181	0.0999948095322907	stim09_sf2_pattern1_cont1_shape2.png	2	1	1	2	1	2	0	0	0	0	0	0	0	0	0	0	0	0	1	15
416.1669921875	0.100006246157136	852310	426	3	stim03_sf1_pattern1_cont2_shape2.png	2	94	0	451.295761674815	451.395767920973	0.100006246157136	stim03_sf1_pattern1_cont2_shape2.png	1	1	2	2	1	3	0	0	0	0	0	0	0	0	0	0	0	0	1	15
416.6669921875	0.0999918770648947	853334	427	2	stim02_sf1_pattern1_cont2_shape1.png	2	95	0	451.795781468973	451.895773346037	0.0999918770648947	stim02_sf1_pattern1_cont2_shape1.png	1	1	2	1	1	3	0	0	0	0	0	0	0	0	0	0	0	0	1	15
417.1669921875	0.100008592131417	854358	428	5	stim05_sf1_pattern2_cont1_shape2.png	2	96	0	452.295745546242	452.395754138373	0.100008592131417	stim05_sf1_pattern2_cont1_shape2.png	1	2	1	2	1	1	0	0	0	0	0	0	0	0	0	0	0	0	1	15
417.6669921875	0.0999830796590686	855382	429	10	stim10_sf2_pattern1_cont2_shape1.png	2	97	0	452.795770325596	452.895753405255	0.0999830796590686	stim10_sf2_pattern1_cont2_shape1.png	2	1	2	1	1	4	0	0	0	0	0	0	0	0	0	0	0	0	1	15
418.1669921875	0.100017976028539	856406	430	7	stim07_sf1_pattern2_cont2_shape2.png	2	98	0	453.295712409354	453.395730385382	0.100017976028539	stim07_sf1_pattern2_cont2_shape2.png	1	2	2	2	1	3	0	0	0	0	0	0	0	0	0	0	0	0	1	15
418.6669921875	0.0999968622600136	857430	431	14	stim14_sf2_pattern2_cont2_shape1.png	2	99	0	453.795721353381	453.895718215641	0.0999968622600136	stim14_sf2_pattern2_cont2_shape1.png	2	2	2	1	1	4	0	0	0	0	0	0	0	0	0	0	0	0	1	15
419.1669921875	0.0999874783610721	858454	432	15	stim15_sf2_pattern2_cont2_shape2.png	2	100	0	454.295724432473	454.395711910835	0.0999874783610721	stim15_sf2_pattern2_cont2_shape2.png	2	2	2	2	1	4	0	0	0	0	0	0	0	0	0	0	0	0	1	15
419.6669921875	0.0999722295291576	859478	433	11	stim11_sf2_pattern1_cont2_shape2.png	2	101	0	454.795706397796	454.895678627325	0.0999722295291576	stim11_sf2_pattern1_cont2_shape2.png	2	1	2	2	1	4	0	0	0	0	0	0	0	0	0	0	0	0	1	15
420.1669921875	0.0999883581025642	860502	434	3	stim03_sf1_pattern1_cont2_shape2.png	2	102	0	455.295700386236	455.395688744338	0.0999883581025642	stim03_sf1_pattern1_cont2_shape2.png	1	1	2	2	1	3	0	0	0	0	0	0	0	0	0	0	0	0	1	15
420.66650390625	0.100025307197939	861525	435	4	stim04_sf1_pattern2_cont1_shape1.png	2	103	0	455.795670621686	455.895695928884	0.100025307197939	stim04_sf1_pattern2_cont1_shape1.png	1	2	1	1	1	1	0	0	0	0	0	0	0	0	0	0	0	0	1	15
421.16650390625	0.100003900182855	862549	436	1	stim01_sf1_pattern1_cont1_shape2.png	2	104	0	456.295677512986	456.395681413169	0.100003900182855	stim01_sf1_pattern1_cont1_shape2.png	1	1	1	2	1	1	0	0	0	0	0	0	0	0	0	0	0	0	1	15
421.66650390625	0.100015043559324	863573	437	2	stim02_sf1_pattern1_cont2_shape1.png	2	105	0	456.795681471818	456.895696515377	0.100015043559324	stim02_sf1_pattern1_cont2_shape1.png	1	1	2	1	1	3	0	0	0	0	0	0	0	0	0	0	0	0	1	15
422.16650390625	0.0999848391402338	864597	438	6	stim06_sf1_pattern2_cont2_shape1.png	2	106	0	457.295658158699	457.395642997839	0.0999848391402338	stim06_sf1_pattern2_cont2_shape1.png	1	2	2	1	1	3	0	0	0	0	0	0	0	0	0	0	0	0	1	15
422.66650390625	0.0999431980962981	865621	439	9	stim09_sf2_pattern1_cont1_shape2.png	2	107	0	457.795741294163	457.89568449226	0.0999431980962981	stim09_sf2_pattern1_cont1_shape2.png	2	1	1	2	1	2	0	0	0	0	0	0	0	0	0	0	0	0	1	15
423.16650390625	0.0999948095322907	866645	440	0	stim00_sf1_pattern1_cont1_shape1.png	2	108	0	458.295680445453	458.395675254986	0.0999948095322907	stim00_sf1_pattern1_cont1_shape1.png	1	1	1	1	1	1	0	0	0	0	0	0	0	0	0	0	0	0	1	15
423.66650390625	0.0999977419996867	867669	441	5	stim05_sf1_pattern2_cont1_shape2.png	2	109	0	458.795664756752	458.895662498751	0.0999977419996867	stim05_sf1_pattern2_cont1_shape2.png	1	2	1	2	1	1	0	0	0	0	0	0	0	0	0	0	0	0	1	15
424.16650390625	0.0999956892719638	868693	442	7	stim07_sf1_pattern2_cont2_shape2.png	2	110	0	459.295659331685	459.395655020957	0.0999956892719638	stim07_sf1_pattern2_cont2_shape2.png	1	2	2	2	1	3	0	0	0	0	0	0	0	0	0	0	0	0	1	15
424.66650390625	0.09999744875131	869717	443	12	stim12_sf2_pattern2_cont1_shape1.png	2	111	0	459.795650974153	459.895648422904	0.09999744875131	stim12_sf2_pattern2_cont1_shape1.png	2	2	1	1	1	2	0	0	0	0	0	0	0	0	0	0	0	0	1	15
425.16650390625	0.0999687105686462	870741	444	14	stim14_sf2_pattern2_cont2_shape1.png	2	112	0	460.295650241034	460.395618951603	0.0999687105686462	stim14_sf2_pattern2_cont2_shape1.png	2	2	2	1	1	4	0	0	0	0	0	0	0	0	0	0	0	0	1	15
425.66650390625	0.0999824931659532	871765	445	10	stim10_sf2_pattern1_cont2_shape1.png	2	113	0	460.795635138826	460.895617631992	0.0999824931659532	stim10_sf2_pattern1_cont2_shape1.png	2	1	2	1	1	4	0	0	0	0	0	0	0	0	0	0	0	0	1	15
426.16650390625	0.100003020441363	872789	446	8	stim08_sf2_pattern1_cont1_shape1.png	2	114	0	461.295610066225	461.395613086666	0.100003020441363	stim08_sf2_pattern1_cont1_shape1.png	2	1	1	1	1	2	0	0	0	0	0	0	0	0	0	0	0	0	1	15
426.66650390625	0.0999971555065713	873813	447	13	stim13_sf2_pattern2_cont1_shape2.png	2	115	0	461.795620183238	461.895617338745	0.0999971555065713	stim13_sf2_pattern2_cont1_shape2.png	2	2	1	2	1	2	0	0	0	0	0	0	0	0	0	0	0	0	1	15
427.16650390625	0.100002433948248	874837	448	7	stim07_sf1_pattern2_cont2_shape2.png	2	116	0	462.295595403884	462.395597837833	0.100002433948248	stim07_sf1_pattern2_cont2_shape2.png	1	2	2	2	1	3	0	0	0	0	0	0	0	0	0	0	0	0	1	15
427.66650390625	0.100004779922529	875861	449	9	stim09_sf2_pattern1_cont1_shape2.png	2	117	0	462.79559261804	462.895597397963	0.100004779922529	stim09_sf2_pattern1_cont1_shape2.png	2	1	1	2	1	2	0	0	0	0	0	0	0	0	0	0	0	0	1	15
